"TimeStamp" "BatteryLevel" "ACC_X" "ACC_Y" "ACC_Z" "ACC_G_X" "ACC_G_Y" "ACC_G_Z" "ROT_A" "ROT_B" "ROT_G" "mag"
"1" 1488117888859 100 -1.0271909236908 -4.67768049240112 -3.91350889205933 1.605584025383 -7.34357213973999 -6.1232328414917 -5.46000003814697 0.910000026226044 -0.420000016689301 6.18476902001442
"2" 1488117888902 100 -0.779638946056366 -3.66174626350403 -3.16334986686707 1.55294179916382 -7.24307441711426 -6.16391134262085 4.48000001907349 -1.04999995231628 -0.140000000596046 4.90132685756637
"3" 1488117888948 100 -0.627539753913879 -3.02319526672363 -2.67807745933533 1.55772757530212 -7.36032247543335 -6.34815835952759 -0.349999994039536 -1.88999998569489 -5.17999982833862 4.08725025434979
"4" 1488117888985 100 -0.835112810134888 -2.35155725479126 -1.99123620986938 1.97407877445221 -7.2765736579895 -6.15912580490112 -10.289999961853 -7.69999980926514 -10.7799997329712 3.19253137364502
"5" 1488117889032 100 -0.137840747833252 -2.24304008483887 -1.68104457855225 1.31126689910889 -7.72881650924683 -6.26919555664062 -0.349999994039536 -10.5699996948242 -7.69999980926514 2.80644611012524
"6" 1488117889081 100 -0.699864029884338 -1.47666597366333 -1.18595266342163 2.04825615882874 -7.33160877227783 -6.07059144973755 -8.96000003814697 -8.05000019073486 2.24000000953674 2.01911757408475
"7" 1488117889130 100 -0.230638742446899 -1.13730478286743 -1.09041690826416 1.63669061660767 -7.2765736579895 -6.24765968322754 -3.5 -5.59999990463257 4.19999980926514 1.59237728961418
"8" 1488117889181 100 -0.184510946273804 -0.856244564056396 -1.19775772094727 1.63669061660767 -7.2095742225647 -6.65443992614746 -7.84000015258789 -11.1999998092651 -0.349999994039536 1.48385396884591
"9" 1488117889226 100 -0.0327532291412354 -0.684995651245117 -0.931406497955322 1.49312126636505 -7.2095742225647 -6.62094020843506 -11.6199998855591 -12.039999961853 -6.01999998092651 1.15663731596266
"10" 1488117889280 100 0.557646036148071 -0.45802640914917 -0.798724174499512 0.763310432434082 -7.09711170196533 -6.68793869018555 -10.0799999237061 -12.460000038147 -6.78999996185303 1.07643745756066
"11" 1488117889326 100 0.503544569015503 -0.699501991271973 -0.928032875061035 0.69152569770813 -7.51346302032471 -7.04925584793091 3.3600001335144 -8.32999992370605 -6.57999992370605 1.26653274176885
"12" 1488117889384 100 0.948399186134338 -0.638085842132568 -0.771140098571777 0.00957129057496786 -7.61156845092773 -7.08514785766602 5.46000003814697 -7.90999984741211 -8.81999969482422 1.37886605941824
"13" 1488117889426 100 0.720434188842773 -0.680837631225586 -0.471428394317627 0.057427741587162 -7.82452964782715 -6.90329313278198 9.3100004196167 8.81999969482422 -4.13000011444092 1.09763838832072
"14" 1488117889481 100 0.141810774803162 -0.663354396820068 0.0631365776062012 0.600598454475403 -7.97288513183594 -6.35294389724731 30.2399997711182 18.5499992370605 3.07999992370605 0.681274965827025
"15" 1488117889527 100 0.270417809486389 -0.934592247009277 0.352961540222168 0.4043869972229 -8.47777080535889 -5.97487831115723 28.3500003814697 44.1700019836426 2.94000005722046 1.03497357876096
"16" 1488117889580 100 -0.021033763885498 -0.787873268127441 0.812619209289551 0.701097011566162 -8.52801990509033 -5.31206607818604 43.1199989318848 67.620002746582 17.6399993896484 1.13204977150273
"17" 1488117889627 100 -1.16729605197906 -0.90786600112915 0.47781229019165 2.13918328285217 -8.87497901916504 -5.52742004394531 95.129997253418 102.620002746582 18.9699993133545 1.5540609169625
"18" 1488117889679 100 -2.46907186508179 -0.743520736694336 0.523905277252197 4.05822706222534 -8.89651393890381 -5.35035085678101 69.9300003051758 108.98999786377 25.4099998474121 2.63127643936658
"19" 1488117889734 100 -1.5924060344696 -0.0339393615722656 0.47655200958252 3.57966279983521 -8.1954174041748 -5.27856636047363 26.1800003051758 79.6600036621094 34.439998626709 1.66253140623457
"20" 1488117889779 100 -0.829816818237305 -0.329604148864746 0.60329532623291 3.02452778816223 -8.57348346710205 -5.00099897384644 24.5 56.3499984741211 49.6300010681152 1.0775899486506
"21" 1488117889834 100 -0.914621353149414 0.65707540512085 1.09711313247681 3.33798766136169 -7.42253541946411 -4.23290300369263 -4.26999998092651 30.8700008392334 55.7900009155273 1.57223965511135
"22" 1488117889879 100 1.87935101985931 0.941054344177246 2.15258646011353 0.0741775035858154 -6.90329313278198 -2.63928318023682 4.48000001907349 29.1200008392334 43.6100006103516 3.00851657844945
"23" 1488117889926 100 0.113729357719421 1.36349201202393 0.295946598052979 1.81136679649353 -6.1399827003479 -4.42193651199341 52.4300003051758 57.6800003051758 22.5400009155273 1.39986757322236
"24" 1488117889979 100 0.263266801834106 -0.69520902633667 1.54993844032288 1.59601259231567 -8.37248611450195 -2.78046011924744 50.5400009155273 52.0099983215332 -3.4300000667572 1.71899219545594
"25" 1488117890026 100 -1.47393393516541 -1.91337585449219 0.765214920043945 3.70169687271118 -10.0689973831177 -3.37387990951538 14.9099998474121 43.75 -0.769999980926514 2.53358289377785
"26" 1488117890082 100 0.379059195518494 -1.18996238708496 1.47167372703552 1.75393903255463 -9.64307498931885 -2.29950261116028 -8.47000026702881 17.5699996948242 6.30000019073486 1.93016059311931
"27" 1488117890126 100 -0.303572416305542 -0.829458236694336 0.769602298736572 2.51246380805969 -9.48993492126465 -2.80917358398438 -6.51000022888184 19.0400009155273 8.81999969482422 1.17151392504839
"28" 1488117890182 100 0.526673793792725 -0.931562423706055 1.01001882553101 1.55054903030396 -9.82492923736572 -2.3162522315979 27.6499996185303 23.8700008392334 0.769999980926514 1.4715066640203
"29" 1488117890226 100 0.128457427024841 -0.385370254516602 0.679759502410889 1.91665089130402 -9.37507915496826 -2.47657155990601 17.2900009155273 24.2199993133545 9.44999980926514 0.791886686806851
"30" 1488117890282 100 0.483703255653381 -0.637548446655273 0.53232216835022 1.44047927856445 -9.78664493560791 -2.49092841148376 18.0599994659424 23.8700008392334 13.0200004577637 0.961147102310209
"31" 1488117890326 100 0.0998238325119019 0.751458168029785 0.322487831115723 1.79940271377563 -8.20977401733398 -2.62014079093933 -10.7799997329712 17.7800006866455 13.4400005340576 0.823803724836061
"32" 1488117890380 100 0.37465488910675 -0.637357711791992 0.736554622650146 1.43090796470642 -9.75792980194092 -2.02193522453308 17.8500003814697 11.6199998855591 2.30999994277954 1.04360138504106
"33" 1488117890426 100 0.433722019195557 0.119904518127441 0.279134035110474 1.26341032981873 -8.9706916809082 -2.40957236289978 4.61999988555908 9.80000019073486 5.94999980926514 0.529535355721882
"34" 1488117890480 100 0.220636487007141 -0.288843154907227 0.154393672943115 1.42133677005768 -9.45164966583252 -2.49571418762207 28.0699996948242 6.15999984741211 2.24000000953674 0.394902815614776
"35" 1488117890526 100 0.595731854438782 0.90599536895752 0.448938846588135 0.897308468818665 -8.03031253814697 -2.08893418312073 21.6299991607666 3.99000000953674 2.58999991416931 1.17357153124189
"36" 1488117890579 100 0.162647008895874 -0.109819412231445 0.713288903236389 1.28973150253296 -9.07358264923096 -1.64626204967499 56.9799995422363 9.44999980926514 -7.69999980926514 0.739794168864425
"37" 1488117890627 100 -0.0402512550354004 0.189711570739746 1.33059179782867 1.50269258022308 -8.72662353515625 -0.696311354637146 46.2000007629395 9.38000011444092 -12.25 1.34465057767935
"38" 1488117890680 100 -0.325082421302795 -1.14801216125488 1.32289826869965 1.86879432201385 -10.3513507843018 -0.373280316591263 34.5099983215332 6.72000026702881 -13.0200004577637 1.78147981531021
"39" 1488117890731 100 -0.0265265703201294 0.253115653991699 0.813293635845184 1.5768700838089 -8.88694381713867 -0.67956155538559 -18.5499992370605 2.73000001907349 -9.17000007629395 0.852184094744131
"40" 1488117890784 100 -0.555299401283264 -0.79292106628418 0.644892036914825 2.24446773529053 -10.1312112808228 -0.686740100383759 15.0500001907349 2.09999990463257 -7.63000011444092 1.16317108874789
"41" 1488117890832 100 -0.250899434089661 -0.22659969329834 0.339801967144012 2.00279259681702 -9.62154006958008 -0.906879723072052 -5.80999994277954 2.30999994277954 -1.19000005722046 0.479336336933008
"42" 1488117890880 100 0.0864192247390747 -0.43587589263916 0.558980226516724 1.64386916160583 -9.93978500366211 -0.547956347465515 5.03999996185303 -6.01999998092651 -0.0700000002980232 0.71408330734248
"43" 1488117890927 100 0.126563191413879 0.0647792816162109 0.221301794052124 1.57208442687988 -9.42293548583984 -0.830309391021729 0.140000000596046 -0.0700000002980232 4.40999984741211 0.263038173652167
"44" 1488117890980 100 0.191220641136169 -0.19511604309082 0.0794141888618469 1.45962178707123 -9.73160934448242 -0.95234340429306 12.8800001144409 0.420000016689301 4.55000019073486 0.284503457378872
"45" 1488117891027 100 -0.145647764205933 0.157845497131348 0.17072981595993 1.83290219306946 -9.339186668396 -0.818345308303833 12.460000038147 -0.769999980926514 3.64000010490417 0.274366802365995
"46" 1488117891083 100 0.145735144615173 0.25644588470459 0.509864211082458 1.50508546829224 -9.17647457122803 -0.351744920015335 14.5600004196167 -2.09999990463257 1.6800000667572 0.589037127777751
"47" 1488117891127 100 0.00173258781433105 0.463582038879395 0.605059921741486 1.64865481853485 -8.85344314575195 -0.105284191668034 14.1400003433228 -1.04999995231628 -4.90000009536743 0.762239343992373
"48" 1488117891180 100 -0.0732700824737549 -0.452265739440918 0.817128896713257 1.74197494983673 -9.88235759735107 0.311066955327988 2.02999997138977 -0.490000009536743 -2.38000011444092 0.93680971274938
"49" 1488117891227 100 0.276379108428955 -0.12061595916748 0.249794661998749 1.32323098182678 -9.58086204528809 -0.193818628787994 12.3900003433228 8.39999961853027 0.420000016689301 0.391575017518923
"50" 1488117891281 100 0.125390291213989 -0.025665283203125 0.263006269931793 1.44287216663361 -9.49232769012451 -0.114855483174324 -6.72000026702881 4.48000001907349 -0.560000002384186 0.292495692132484
"51" 1488117891326 100 -0.165769577026367 -0.229186058044434 -0.180103629827499 1.77547442913055 -9.75314521789551 -0.602991282939911 14.0699996948242 7.42000007629395 -1.82000005245209 0.335325393232436
"52" 1488117891379 100 0.0377533435821533 -0.0436077117919922 0.0435143709182739 1.56251323223114 -9.57846927642822 -0.368494689464569 -8.89000034332275 0.0700000002980232 -0.490000009536743 0.0722526674647981
"53" 1488117891427 100 0.0665736198425293 0.571933746337891 -0.281041085720062 1.51704955101013 -8.81994438171387 -0.763310432434082 -6.51000022888184 -0.699999988079071 -0.840000033378601 0.640721740634531
"54" 1488117891480 100 0.0953724384307861 -0.103330612182617 0.0910197198390961 1.46440756320953 -9.52104187011719 -0.368494689464569 -8.89000034332275 0.629999995231628 -4.13000011444092 0.167504348677448
"55" 1488117891527 100 0.00355625152587891 -0.304718017578125 -0.0343826413154602 1.55533468723297 -9.79860877990723 -0.502492725849152 -10.710000038147 -1.25999999046326 0.349999994039536 0.306672273258417
"56" 1488117891581 100 0.0755866765975952 0.294132232666016 -0.155761361122131 1.46440756320953 -9.12622547149658 -0.662811815738678 -0.21000000834465 -1.25999999046326 -0.490000009536743 0.34130443535176
"57" 1488117891627 100 -0.0199294090270996 0.0304803848266602 -0.115037858486176 1.564906001091 -9.38225746154785 -0.650847792625427 -6.78999996185303 -2.87000012397766 -1.75 0.120664593350477
"58" 1488117891681 100 -0.0886853933334351 -0.613062858581543 -0.143715262413025 1.65583336353302 -10.17906665802 -0.71545398235321 7.90999984741211 2.30999994277954 -0.280000001192093 0.635897196261568
"59" 1488117891727 100 0.181733846664429 0.325023651123047 -0.0135165452957153 1.3399806022644 -9.15972423553467 -0.588634371757507 -4.05999994277954 -2.24000000953674 1.04999995231628 0.372626168981108
"60" 1488117891780 100 0.0362741947174072 -0.295116424560547 -0.121840238571167 1.47637164592743 -9.8536434173584 -0.727418124675751 9.23999977111816 3.28999996185303 -2.51999998092651 0.321332483547612
"61" 1488117891828 100 0.0634759664535522 0.160158157348633 -0.242955803871155 1.43330085277557 -9.35832977294922 -0.909272611141205 0.840000033378601 0.490000009536743 2.09999990463257 0.297837802028555
"62" 1488117891881 100 0.0316382646560669 0.0419855117797852 -0.108223021030426 1.45722901821136 -9.4660062789917 -0.801595568656921 5.25 -1.75 -2.30999994277954 0.120316188731234
"63" 1488117891928 100 0.113366603851318 0.207785606384277 -0.0904070138931274 1.34715902805328 -9.24825954437256 -0.806381285190582 -1.04999995231628 -3.3600001335144 -0.840000033378601 0.253377728402351
"64" 1488117891981 100 0.0466653108596802 -0.216623306274414 0.15547114610672 1.40219402313232 -9.7268238067627 -0.521635353565216 0.349999994039536 -5.94999980926514 -1.61000001430511 0.270692787732932
"65" 1488117892027 100 0.110073924064636 0.561777114868164 0.091834545135498 1.31126689910889 -8.80797958374023 -0.562313318252563 -4.19999980926514 -6.78999996185303 0.699999988079071 0.579778732991155
"66" 1488117892081 100 -0.164622902870178 0.00722694396972656 0.38740599155426 1.62711942195892 -9.36072254180908 -0.169890388846397 -2.30999994277954 -3.3600001335144 -1.12000000476837 0.42099445502368
"67" 1488117892128 100 -0.0340712070465088 0.348433494567871 -0.43472158908844 1.50508546829224 -8.93240737915039 -1.10069835186005 -24.1499996185303 -5.1100001335144 -4.13000011444092 0.558166290012182
"68" 1488117892181 100 -0.327795386314392 0.163891792297363 -1.38913369178772 1.88075852394104 -9.07597637176514 -2.40239381790161 -52.7799987792969 -17.1499996185303 -1.61000001430511 1.43666375625308
"69" 1488117892236 100 0.513038158416748 0.245968818664551 -0.961994886398315 0.911665439605713 -8.93240737915039 -2.21575379371643 -40.5999984741211 -18.7600002288818 -9.44999980926514 1.11765064899699
"70" 1488117892290 100 -0.759181261062622 -0.838837623596191 -0.562855958938599 2.37368011474609 -10.2269239425659 -1.95732879638672 -127.959999084473 -12.25 -20.5799999237061 1.26365010047158
"71" 1488117892350 100 -2.01432466506958 2.43577098846436 -0.34308648109436 4.13240480422974 -6.3433723449707 -1.82333087921143 -299.179992675781 -36.189998626709 -47.5299987792969 3.17933837426311
"72" 1488117892396 100 -2.05173921585083 3.63507795333862 -0.29169750213623 4.6827540397644 -4.23529577255249 -1.84486627578735 -387.869995117188 -56.9799995422363 -113.120002746582 4.18431750342409
"73" 1488117892429 100 -1.08242797851562 4.76680660247803 -0.13764500617981 3.98404979705811 -1.91186535358429 -1.72522509098053 -434.910003662109 -69.7900009155273 -156.940002441406 4.89009628349256
"74" 1488117892488 100 0.786062479019165 6.08566999435425 -3.9099178314209 1.91904377937317 0.928415179252625 -6.47497749328613 -325.570007324219 -22.8899993896484 -146.300003051758 7.27603813552186
"75" 1488117892529 100 2.75941920280457 5.90797805786133 -5.7466402053833 -0.744167804718018 2.22771787643433 -9.74835968017578 -173.600006103516 -45.2200012207031 -91.4199981689453 8.69151728521006
"76" 1488117892589 100 2.11565089225769 0.532242774963379 -4.10343313217163 -0.629312336444855 -3.01495671272278 -9.13101100921631 -241.779998779297 0.0700000002980232 -22.5400009155273 4.64730293176756
"77" 1488117892629 100 0.076886773109436 7.94691467285156 -0.179734230041504 1.39023005962372 6.38644361495972 -5.25224590301514 -510.649993896484 -36.8199996948242 18.0599994659424 7.94931876244193
"78" 1488117892682 100 -0.876477122306824 10.7928676605225 2.43089008331299 2.56271314620972 11.9306135177612 -2.03389930725098 -440.230010986328 -56.4200019836426 19.7399997711182 11.0979021026782
"79" 1488117892743 100 2.50520062446594 9.35979843139648 1.03735375404358 -1.44526481628418 12.8374938964844 -3.16809725761414 -317.309997558594 -60.9000015258789 47.0400009155273 9.7446374820321
"80" 1488117892794 100 -0.442261457443237 6.67236328125 0.502545118331909 1.61276257038116 11.8181495666504 -3.57726979255676 -165.270004272461 -23.3099994659424 109.410003662109 6.70586150689621
"81" 1488117892850 100 -0.0819844007492065 5.07181024551392 0.871029376983643 1.27298152446747 11.4855489730835 -2.99102830886841 28.7700004577637 -56.4200019836426 145.18000793457 5.14671475642809
"82" 1488117892898 100 -3.91707491874695 3.18837547302246 0.168488502502441 6.08734083175659 10.3992080688477 -3.651447057724 47.7400016784668 -32.4099998474121 195.720001220703 5.05347429512836
"83" 1488117892950 100 -6.69800806045532 2.5717568397522 1.87485110759735 10.5427761077881 10.4255285263062 -1.47637164592743 -16.5200004577637 -53.9700012207031 174.160003662109 7.41568013714155
"84" 1488117892999 100 -7.78377199172974 2.40388584136963 2.67140698432922 13.5744829177856 10.8586292266846 -0.0119641125202179 -57.3300018310547 -53.8300018310547 91.8400039672852 8.57334175415262
"85" 1488117893053 100 -0.73692512512207 -0.0409202575683594 0.575091123580933 6.7118673324585 8.40359306335449 -1.96450734138489 10.710000038147 -73.9899978637695 53.9000015258789 0.935661748676956
"86" 1488117893101 100 -1.37629985809326 -1.20617628097534 3.23191857337952 7.69531726837158 6.93679285049438 1.50029981136322 60.9000015258789 -87.2200012207031 24.4300003051758 3.71407595306431
"87" 1488117893155 100 -2.40273571014404 -1.44924831390381 3.6479480266571 9.32243728637695 6.33140897750854 2.82831621170044 -51.5900001525879 -40.5999984741211 42.4900016784668 4.60228034493184
"88" 1488117893205 100 0.36152172088623 0.450491905212402 3.17869758605957 6.4677996635437 8.34377193450928 3.1537401676178 -338.660003662109 -54.5999984741211 -32.3400001525879 3.23075211908239
"89" 1488117893266 100 3.95119333267212 1.36346530914307 2.5601863861084 1.89032995700836 9.59761142730713 3.17527556419373 -299.880004882812 -33.5299987792969 -55.7200012207031 4.90158349240365
"90" 1488117893318 100 2.11002683639526 -1.85909938812256 3.25604605674744 3.20398950576782 5.91027164459229 4.68514680862427 -176.330001831055 7.84000015258789 -68.1800003051758 4.30235978375663
"91" 1488117893370 100 0.48395299911499 -0.631606101989746 2.20858526229858 4.70907497406006 6.97986364364624 4.18983221054077 -188.720001220703 40.5999984741211 -88.1999969482422 2.34754885663016
"92" 1488117893402 100 0.195736885070801 -0.685225009918213 -0.553212404251099 4.94835710525513 6.75493860244751 1.28973150253296 -209.160003662109 32.4799995422363 -24.6399993896484 0.90215863716528
"93" 1488117893464 100 -2.5673999786377 1.35650634765625 2.38670372962952 8.35334396362305 9.13579654693604 4.82632350921631 83.5100021362305 1.6800000667572 28.9099998474121 3.75872409396699
"94" 1488117893515 100 -2.52099847793579 -0.578284740447998 0.770379543304443 8.9371919631958 7.0564341545105 3.40259408950806 259.630004882812 88.9000015258789 57.4700012207031 2.69876475587102
"95" 1488117893568 100 -3.53480672836304 -1.54801273345947 0.629703044891357 10.8347015380859 5.69970321655273 3.4193434715271 367.149993896484 50.1199989318848 97.8600006103516 3.90995242356972
"96" 1488117893619 100 -1.97791385650635 -3.82074427604675 0.0921969413757324 9.77228736877441 2.4717857837677 2.9048867225647 230.93000793457 -13.1599998474121 105 4.30333943847135
"97" 1488117893681 100 0.218985557556152 -1.45053291320801 2.28089714050293 7.52064180374146 4.47936391830444 5.66381120681763 -33.5299987792969 -73.4300003051758 144.199996948242 2.71191669714841
"98" 1488117893734 100 -0.559886455535889 0.413094043731689 0.191855669021606 8.43948554992676 6.44626426696777 3.62273359298706 -159.529998779297 -145.669998168945 116.129997253418 0.721753510413956
"99" 1488117893770 100 1.16772508621216 4.53801536560059 1.4015805721283 6.41994285583496 11.7056894302368 5.18285369873047 -113.889999389648 -51.4500007629395 77.1399993896484 4.89097060260678
"100" 1488117893821 100 0.321617603302002 7.72309684753418 1.46583080291748 7.18564605712891 16.8215446472168 5.61356163024902 -179.410003662109 -21.2100009918213 6.30000019073486 7.86754871239625
"101" 1488117893877 100 2.41657686233521 6.60918426513672 -0.067774772644043 4.48654270172119 17.3599281311035 4.06301259994507 -31.2900009155273 23.8700008392334 -33.3199996948242 7.03745364474336
"102" 1488117893928 100 0.137687683105469 3.99905204772949 -6.41721343994141 6.73100996017456 15.7495584487915 -3.89072966575623 60.3400001525879 -18.9699993133545 -56.2799987792969 7.56253948831297
"103" 1488117893993 100 2.81499671936035 -6.65153026580811 -7.91518783569336 3.34995174407959 3.4360933303833 -7.36750078201294 97.7900009155273 -64.6100006103516 -53.7600021362305 10.7152816053186
"104" 1488117893998 100 5.19229793548584 -4.60720634460449 -5.03045463562012 -0.325423896312714 4.32861614227295 -5.74038124084473 147.979995727539 -38.2200012207031 -41.5800018310547 8.57273480247968
"105" 1488117894032 100 4.84297132492065 -6.8194055557251 -2.56952786445618 -1.18684005737305 0.411565512418747 -3.92183637619019 109.480003356934 54.4599990844727 -95.2699966430664 8.74992210443469
"106" 1488117894083 100 1.63660931587219 -0.0266880989074707 0.195545315742493 1.61036968231201 7.19761085510254 -1.10787689685822 103.529998779297 51.7299995422363 -89.25 1.64846603784602
"107" 1488117894136 100 -0.434601545333862 10.0667905807495 -0.415926933288574 3.79023098945618 19.8077869415283 -1.82333087921143 223.790008544922 61.3899993896484 -17.5699996948242 10.0847482027916
"108" 1488117894186 100 -12.240966796875 12.5749073028564 2.10028052330017 18.6568374633789 25.4596309661865 1.21794664859772 279.579986572266 35.7700004577637 1.6800000667572 17.6742960276833
"109" 1488117894242 100 -5.27512502670288 2.63260650634766 -1.18733417987823 13.0097770690918 16.1754817962646 -2.36650156974792 75.1100006103516 -90.2300033569336 -165.970001220703 6.01392746209315
"110" 1488117894284 100 -2.13930130004883 -2.60107612609863 1.48506903648376 10.4087791442871 10.2915296554565 0.677168846130371 7.28000020980835 -57.4700012207031 -171.639999389648 3.68071149497943
"111" 1488117894336 100 2.52098369598389 -7.61498022079468 0.678862512111664 5.11824798583984 3.37387990951538 0.0406779870390892 -51.2400016784668 18.2700004577637 -161.419998168945 8.05010166823136
"112" 1488117894387 100 2.95668792724609 -8.57669162750244 -1.03043007850647 3.94337177276611 0.26799613237381 -1.92622220516205 17.4300003051758 118.090003967285 -119.910003662109 9.13035754607037
"113" 1488117894430 100 0.807144165039062 -8.18984794616699 0.228497862815857 5.89112949371338 -1.39262270927429 -0.610169768333435 141.119995117188 78.5400009155273 -81.4800033569336 8.23269714964687
"114" 1488117894484 100 2.31877708435059 -10.0683708190918 0.877673983573914 3.79980230331421 -5.78823804855347 0.2584248483181 94.9899978637695 -10.6400003433228 -23.5200004577637 10.3691431535634
"115" 1488117894539 100 1.73059511184692 -5.72121620178223 1.0888192653656 3.95533561706543 -2.87138724327087 0.741775035858154 -46.8300018310547 -12.25 107.520004272461 6.0755906430005
"116" 1488117894584 100 -4.10753059387207 6.22709989547729 1.35344851016998 10.8203439712524 10.6337041854858 1.34476637840271 -220.149993896484 -8.53999996185303 189.419998168945 7.58158318278773
"117" 1488117894636 100 -5.6156759262085 9.90323638916016 -1.72354364395142 13.7324085235596 16.7856502532959 -2.16311168670654 -355.110015869141 -66.2200012207031 132.93000793457 11.5143610235388
"118" 1488117894689 100 1.25788974761963 4.72577857971191 -2.55418920516968 6.54437017440796 12.7896366119385 -3.63230466842651 -50.1199989318848 -22.1200008392334 102.340003967285 5.51716886613377
"119" 1488117894740 100 3.1751663684845 -0.268033027648926 -0.795255064964294 3.83330178260803 7.72881650924683 -2.07218432426453 36.8199996948242 9.23999977111816 102.76000213623 3.28419758690263
"120" 1488117894789 100 2.25682306289673 0.204795837402344 -1.85750091075897 4.18743944168091 8.25284481048584 -3.59880542755127 -14.2799997329712 18.8999996185303 110.809997558594 2.93010261009923
"121" 1488117894845 100 3.12821078300476 0.248064041137695 -1.0916633605957 2.53399920463562 8.35812950134277 -3.10588359832764 17.8500003814697 34.7900009155273 104.019996643066 3.32249414811824
"122" 1488117894905 100 3.34292793273926 -1.5339527130127 0.0761411190032959 1.48355007171631 6.19262456893921 -1.91904377937317 167.580001831055 55.2999992370605 92.3300018310547 3.678855196831
"123" 1488117894961 100 2.96722388267517 -2.99976468086243 1.40472209453583 1.11744809150696 3.97687125205994 -0.239282250404358 187.039993286133 77.8400039672852 73.2900009155273 4.4470495694724
"124" 1488117894988 100 1.07591199874878 -1.9978175163269 2.00816488265991 2.73978185653687 4.47936391830444 0.866201817989349 196.419998168945 80.5699996948242 110.040000915527 3.03011347205723
"125" 1488117895030 100 -3.90960168838501 -1.04120492935181 2.63448858261108 8.70269584655762 5.17567539215088 2.15114760398865 202.649993896484 80.8499984741211 153.440002441406 4.82800405536673
"126" 1488117895085 100 -3.62921714782715 -0.404170036315918 4.61526918411255 9.32961559295654 5.71166753768921 5.28574562072754 271.390014648438 5.94999980926514 130.899993896484 5.8851746079583
"127" 1488117895130 100 -6.12507104873657 -3.69051599502563 4.88096952438354 13.3567371368408 1.50269258022308 6.77168846130371 66.5 -38.6399993896484 24.7800006866455 8.65795975733151
"128" 1488117895191 100 -4.5133752822876 -1.41909217834473 4.28571271896362 12.8733854293823 3.4193434715271 7.24785995483398 -216.580001831055 -84.0699996948242 -72.2399978637695 6.38370680395728
"129" 1488117895239 100 -7.06402111053467 -0.513139724731445 6.67515134811401 17.1900367736816 4.19701099395752 11.3060865402222 -171.990005493164 -22.75 -129.570007324219 9.73248951437428
"130" 1488117895287 100 -4.91997146606445 -3.45035362243652 2.00165510177612 16.2759799957275 0.397208571434021 7.1330041885376 -192.009994506836 69.5100021362305 -130.130004882812 6.33385210541071
"131" 1488117895348 100 -3.68712425231934 -1.42413067817688 -0.665157318115234 15.9649133682251 2.0673987865448 4.29990243911743 -73.7799987792969 97.5100021362305 -64.5400009155273 4.00817510825166
"132" 1488117895399 100 -16.3801345825195 -4.74193811416626 -8.25232887268066 32.7529563903809 -2.43589329719543 -5.35035085678101 355.739990234375 158.970001220703 -16.1000003814697 18.9445432207513
"133" 1488117895456 100 -0.0794944763183594 7.9676513671875 2.46406292915344 16.4721908569336 12.2656087875366 5.98205661773682 -147.979995727539 42.9799995422363 -36.5400009155273 8.34034734286518
"134" 1488117895506 100 -0.0712528228759766 2.92462778091431 5.63896894454956 16.481761932373 7.95374250411987 10.566704750061 146.789993286133 141.75 -82.3199996948242 6.35267623755988
"135" 1488117895571 100 2.01613807678223 5.33168745040894 -0.772177457809448 13.8903360366821 11.6937236785889 3.9625141620636 286.440002441406 234.009994506836 -127.400001525879 5.7522136469231
"136" 1488117895625 100 5.38782787322998 1.51073265075684 1.33671522140503 9.1716890335083 8.25045204162598 6.40558576583862 211.68000793457 260.959991455078 -175.070007324219 5.75306960819636
"137" 1488117895683 100 6.10009336471558 2.35714101791382 -0.56348991394043 6.93440008163452 9.6861457824707 4.36450815200806 72.3099975585938 260.119995117188 -188.440002441406 6.56389927708305
"138" 1488117895733 100 5.92717409133911 2.08479595184326 -0.389534950256348 5.6255259513855 9.93499946594238 4.44107913970947 77 255.5 -191.029998779297 6.29519692681134
"139" 1488117895770 100 5.68355417251587 0.930848121643066 -2.10145974159241 4.4482569694519 9.01376342773438 2.20378947257996 59.8499984741211 233.240005493164 -195.229995727539 6.13069321553628
"140" 1488117895816 100 6.16056251525879 1.67309284210205 -2.21524572372437 2.43110775947571 10.1742811203003 1.53619205951691 126.349998474121 193.619995117188 -180.460006713867 6.75715056656161
"141" 1488117895873 100 5.07967615127563 -2.61829662322998 -3.46822929382324 2.24207496643066 5.22831726074219 -0.583848714828491 105.840003967285 167.160003662109 -162.889999389648 6.68484864776979
"142" 1488117895926 100 5.20081043243408 0.177587032318115 -3.83125400543213 0.820738136768341 8.0685977935791 -1.90468680858612 143.080001831055 87.8499984741211 -79.9400024414062 6.46207966233027
"143" 1488117895985 100 3.81225347518921 0.871401786804199 0.790312767028809 1.25623190402985 8.98026275634766 2.91445803642273 134.470001220703 41.5099983215332 -25.7600002288818 3.98963806665047
"144" 1488117896036 100 1.50882506370544 -1.8679838180542 1.51280879974365 3.18245387077332 5.77388143539429 4.01515626907349 287.279998779297 5.3899998664856 30.5200004577637 2.83804634950874
"145" 1488117896085 100 -0.345403671264648 -5.05107879638672 -2.60869789123535 5.12303352355957 1.32801651954651 -0.758524775505066 93.2399978637695 9.44999980926514 83.370002746582 5.69543724319445
"146" 1488117896138 100 0.784176588058472 -3.64461135864258 -3.26422691345215 3.79740929603577 1.82333087921143 -2.23011064529419 63.2799987792969 21.4200000762939 95.9700012207031 4.9551288801918
"147" 1488117896144 100 0.797710180282593 -1.09714412689209 -2.90617728233337 3.58444809913635 4.09651231765747 -2.5986053943634 57.2600021362305 57.4000015258789 135.520004272461 3.20716902629888
"148" 1488117896190 100 0.783651351928711 -0.207725048065186 -3.06193113327026 3.40259408950806 4.93400001525879 -3.51984214782715 -50.1199989318848 72.0299987792969 182.770004272461 3.16744082847069
"149" 1488117896232 100 -0.219180583953857 2.24387121200562 -3.00467944145203 4.46022129058838 7.94656419754028 -4.21376037597656 -116.620002746582 44.0999984741211 259.839996337891 3.75647397040554
"150" 1488117896285 100 -3.47361183166504 4.65882730484009 -3.15987586975098 8.58305549621582 11.5262269973755 -5.15892601013184 -185.850006103516 3.77999997138977 287.769989013672 6.61479149525073
"151" 1488117896344 100 -2.32138156890869 7.14018440246582 -1.521000623703 8.01117038726807 15.7926301956177 -3.90030097961426 -108.150001525879 -26.3199996948242 225.470001220703 7.66058017300192
"152" 1488117896393 100 1.50241756439209 1.41846656799316 -1.92507600784302 3.81176662445068 10.4255285263062 -4.78564548492432 4.69000005722046 5.1100001335144 122.01000213623 2.82404383434128
"153" 1488117896441 100 2.87691020965576 -1.41693258285522 -2.28087854385376 1.71804666519165 7.23589563369751 -5.71166753768921 63.560001373291 26.25 83.4400024414062 3.93531666204777
"154" 1488117896488 100 3.08637380599976 -0.7564377784729 -0.193754911422729 0.736989378929138 7.70728158950806 -3.67298269271851 -0.769999980926514 14.4899997711182 100.519996643066 3.18362094929074
"155" 1488117896541 100 0.334701299667358 3.49710559844971 0.631756067276001 3.40498661994934 12.8351011276245 -2.68953275680542 30.5200004577637 39.689998626709 93.5199966430664 3.56943808676483
"156" 1488117896586 100 -2.09443330764771 0.996367454528809 1.19070935249329 6.35772943496704 10.5834550857544 -1.83290219306946 152.25 87.5 57.6800003051758 2.60714168137125
"157" 1488117896637 100 -6.4841628074646 1.3369140625 1.21482086181641 12.3684997558594 11.2582302093506 -1.50508546829224 158.410003662109 92.5400009155273 4.19999980926514 6.73108432947633
"158" 1488117896685 100 -6.1827449798584 -0.911725997924805 1.99215638637543 13.6127681732178 8.78165912628174 -0.229710966348648 129.220001220703 58.5900001525879 -25.6200008392334 6.55944104699727
"159" 1488117896736 100 -5.22376346588135 -2.46178436279297 2.44365572929382 13.9597272872925 6.61615467071533 0.832702279090881 94.5699996948242 9.38000011444092 -38.5699996948242 6.27052950871609
"160" 1488117896785 100 -3.14339733123779 -3.88177156448364 2.38563251495361 12.665210723877 4.22572469711304 1.37108731269836 83.5800018310547 -28.5599994659424 -79.0999984741211 5.53537169097709
"161" 1488117896841 100 0.312642097473145 -5.65520906448364 1.52756869792938 9.13101100921631 1.03848505020142 0.894915699958801 81.4100036621094 -40.8800010681152 -130.410003662109 5.86622542790712
"162" 1488117896885 100 1.51352405548096 -5.94837522506714 1.94755864143372 7.55174827575684 -0.741775035858154 1.80179524421692 48.3699989318848 -49.4200019836426 -145.18000793457 6.43948037861249
"163" 1488117896941 100 3.1327338218689 -3.66374468803406 1.28430819511414 5.14935445785522 0.626919507980347 1.45962178707123 -42.3499984741211 -64.5400009155273 -102.129997253418 4.98863647481117
"164" 1488117896990 100 1.59691429138184 -2.40840315818787 0.246429279446602 6.28594541549683 1.28016018867493 0.483350187540054 -28.3500003814697 -42.2799987792969 -27.2999992370605 2.90021868419563
"165" 1488117897035 100 -1.96713638305664 -1.40030157566071 0.400054782629013 10.3417797088623 1.93818628787994 0.736989378929138 -21.2100009918213 -29.1200008392334 70.9100036621094 2.44755263098618
"166" 1488117897085 100 -2.77011966705322 -0.494278907775879 -1.32047545909882 11.8372926712036 2.7206392288208 -1.31365978717804 10.2200002670288 34.5099983215332 132.089996337891 3.10830018604211
"167" 1488117897141 100 -5.21956825256348 -2.50110697746277 -4.05219411849976 15.5916328430176 0.0885344371199608 -5.05842685699463 -101.360000610352 61.5299987792969 114.23999786377 7.06538788955606
"168" 1488117897187 100 -1.43060874938965 3.75720262527466 -0.873818159103394 12.1603260040283 7.28614473342896 -2.09850549697876 -234.009994506836 6.09000015258789 89.8099975585938 4.11421573770504
"169" 1488117897243 100 2.36817789077759 5.13633108139038 -2.6477689743042 7.76949453353882 9.94935607910156 -4.53439855575562 -83.1600036621094 -31.1499996185303 106.889999389648 6.24506557542133
"170" 1488117897290 100 2.64110231399536 0.718914031982422 -1.19554305076599 6.83629465103149 5.71166753768921 -3.38105845451355 61.1100006103516 -2.94000005722046 92.9599990844727 2.98690174003226
"171" 1488117897344 100 1.22658061981201 2.34581995010376 -1.38905668258667 7.94417095184326 7.9250283241272 -3.92183637619019 -90.7900009155273 -14.5600004196167 17.8500003814697 2.98945642594802
"172" 1488117897385 100 2.59689855575562 1.30620718002319 -0.395312786102295 5.92462873458862 7.21196746826172 -3.02692055702209 -80.4300003051758 -50.4700012207031 -34.1599998474121 2.93365497372914
"173" 1488117897439 100 2.15408897399902 0.392203807830811 0.302054882049561 5.82891607284546 6.39601516723633 -2.25403904914856 -14.7700004577637 -51.5900001525879 -50.1199989318848 2.21023987081745
"174" 1488117897489 100 0.861855030059814 -1.3324990272522 1.77113628387451 6.90568590164185 4.33818769454956 -0.342173635959625 -2.79999995231628 -48.1599998474121 -53.6199989318848 2.37808147180122
"175" 1488117897540 100 -0.784494876861572 -1.34930944442749 2.46209383010864 8.74815940856934 3.98404979705811 0.964307546615601 -8.32999992370605 -33.3199996948242 -40.0400009155273 2.91512850778526
"176" 1488117897591 100 -4.68773651123047 -0.202717304229736 2.56500935554504 13.823335647583 5.07996273040771 1.70847535133362 -10.9200000762939 -0.840000033378601 -11.8299999237061 5.34745181354549
"177" 1488117897640 100 -2.44658088684082 -0.445484161376953 1.65001320838928 12.1938247680664 4.72582483291626 1.20598256587982 29.9600009918213 7.90999984741211 -30.5200004577637 2.98441916656351
"178" 1488117897695 100 -3.23024559020996 -1.65234041213989 -0.209481656551361 13.7850513458252 3.10588359832764 -0.705882728099823 134.820007324219 84.4899978637695 -39.3400001525879 3.63436348967643
"179" 1488117897752 100 0.103422164916992 -1.04047632217407 0.655545711517334 10.4255285263062 3.45762872695923 0.323031067848206 117.599998474121 80.2900009155273 -61.1800003051758 1.23410992261215
"180" 1488117897803 100 -0.874390602111816 -0.951065063476562 -0.629861056804657 11.6219396591187 3.3092737197876 -1.11984097957611 68.879997253418 70.5599975585938 -75.8099975585938 1.43729211745776
"181" 1488117897862 100 1.49805641174316 -1.09201884269714 -0.588116228580475 8.87497901916504 2.89531517028809 -1.22512519359589 -22.75 27.9300003051758 -121.449996948242 1.94488016697434
"182" 1488117897911 100 1.13144588470459 0.8855881690979 -0.694461166858673 8.95872783660889 5.09431934356689 -1.50508546829224 -45.6399993896484 14.7700004577637 -134.399993896484 1.59584225647018
"183" 1488117897969 100 3.75740146636963 -0.803793430328369 0.726984024047852 5.39342212677002 3.20398950576782 0.0981057211756706 -26.6700000762939 -38.2200012207031 -113.819999694824 3.91058249233238
"184" 1488117898020 100 3.38111591339111 0.670145988464355 -0.641623735427856 4.92442893981934 4.84546566009521 -1.43090796470642 -52.9900016784668 -12.1800003051758 -52.2200012207031 3.50609775726603
"185" 1488117898052 100 1.65970754623413 0.54185962677002 0.910909056663513 6.2309103012085 4.85264444351196 0.349352121353149 -41.6500015258789 -25.2000007629395 -3.92000007629395 1.96926288333007
"186" 1488117898108 100 -1.70250415802002 2.58702802658081 0.832097172737122 10.0187482833862 7.54456996917725 0.478564500808716 -57.2600021362305 -26.1800003051758 12.039999961853 3.2068084013965
"187" 1488117898166 100 -2.64838600158691 2.73769807815552 0.68099182844162 11.6267261505127 8.37966442108154 0.497707098722458 -85.4700012207031 -69.5100021362305 7.76999998092651 3.86945591148707
"188" 1488117898219 100 0.737364768981934 1.48954057693481 -0.598018646240234 8.05663394927979 7.50389194488525 -0.930808007717133 -149.729995727539 -75.3199996948242 -19.4600009918213 1.7663703558773
"189" 1488117898280 100 2.40078020095825 1.33902978897095 -1.90645122528076 5.79302358627319 7.68813848495483 -2.7158534526825 -29.1200008392334 -31.2199993133545 -3.84999990463257 3.34534043461039
"190" 1488117898334 100 2.00293684005737 0.887455940246582 -1.14039516448975 5.69013261795044 7.45842838287354 -2.23489618301392 24.3600006103516 -24.2199993133545 14.5600004196167 2.46978443640929
"191" 1488117898369 100 1.02615785598755 0.409425735473633 -0.374409794807434 6.41037225723267 7.08275461196899 -1.56251323223114 -7.21000003814697 -45.1500015258789 6.57999992370605 1.16653850031657
"192" 1488117898418 100 1.12529325485229 0.24139928817749 0.334091603755951 6.02991342544556 6.97507810592651 -0.770488917827606 -37.0999984741211 -55.6500015258789 -6.01999998092651 1.19840549291502
"193" 1488117898474 100 0.905977725982666 0.183547496795654 0.743923544883728 6.02273464202881 6.96311330795288 -0.174676060676575 -47.3899993896484 -48.3699989318848 -11.3400001525879 1.18655280716412
"194" 1488117898528 100 1.83505201339722 0.0185832977294922 0.432426899671555 4.63489723205566 6.80279493331909 -0.378065973520279 -60.4799995422363 -29.1200008392334 -14.6300001144409 1.88540559413279
"195" 1488117898583 100 2.05380439758301 0.11632251739502 1.62466597557068 3.90269374847412 6.92961454391479 1.22033953666687 -114.590003967285 -13.5799999237061 -22.8199996948242 2.62129413911553
"196" 1488117898636 100 1.25636339187622 0.776447772979736 2.72011232376099 4.38604402542114 7.78385162353516 2.99581408500671 -282.730010986328 2.66000008583069 -24.9200000762939 3.09521100581015
"197" 1488117898680 100 1.9947624206543 0.812584400177002 4.37940073013306 3.14895439147949 8.02313423156738 5.74995279312134 -281.049987792969 -0.349999994039536 -15.2600002288818 4.88042224375674
"198" 1488117898737 100 0.640594959259033 1.34685707092285 4.87412929534912 4.34297323226929 8.89412117004395 7.46321392059326 -138.740005493164 10.9899997711182 17.5699996948242 5.09720729999315
"199" 1488117898789 100 -1.16632843017578 0.214155197143555 3.50688028335571 6.44147872924805 7.81495809555054 6.97268486022949 41.7200012207031 36.6800003051758 37.7299995422363 3.70194459403284
"200" 1488117898838 100 -2.37449932098389 0.469948768615723 1.73734855651855 8.2432746887207 8.18823909759521 5.63749027252197 23.5200004577637 79.5199966430664 3.64000010490417 2.97950983843207
"201" 1488117898884 100 -2.49301910400391 -0.512257099151611 0.765830516815186 8.9850492477417 7.07796907424927 4.85742998123169 71.75 86.9400024414062 -33.3899993896484 2.6578276785836
"202" 1488117898951 100 -1.57902050018311 -1.34204959869385 0.390610218048096 8.46580600738525 5.91266441345215 4.57986211776733 99.9599990844727 51.0999984741211 -41.2999992370605 2.10878619300213
"203" 1488117898982 100 0.241389751434326 -2.31216478347778 -0.682925462722778 6.58504819869995 4.36450815200806 3.33559489250183 36.6100006103516 23.7299995422363 -41.1599998474121 2.42296557666169
"204" 1488117899029 100 1.16938352584839 -1.55493593215942 -0.473598718643188 5.3647084236145 4.73300313949585 3.42652201652527 -0.490000009536743 6.51000022888184 -27.9300003051758 2.00239340039528
"205" 1488117899088 100 1.16904592514038 -1.02955198287964 0.798389911651611 5.07278442382812 5.00099897384644 4.89810800552368 -26.3899993896484 -26.4600009918213 -18.6900005340576 1.75044911710275
"206" 1488117899131 100 0.986922264099121 -0.0426239967346191 1.50969982147217 5.00817775726318 5.97727108001709 5.9868426322937 -44.1700019836426 -59.2900009155273 -24.0100002288818 1.80416903626719
"207" 1488117899183 100 1.21258878707886 -0.378665924072266 1.84712171554565 4.47936391830444 5.54656267166138 6.78604507446289 -47.3899993896484 -77.2799987792969 -40.4599990844727 2.24178903571304
"208" 1488117899231 100 2.3081374168396 0.5125412940979 2.30848503112793 2.80678081512451 6.56590509414673 7.82452964782715 -89.5999984741211 -80.0800018310547 -46.689998626709 3.30443641974123
"209" 1488117899282 100 3.70334005355835 0.65505838394165 2.06118535995483 0.48574298620224 6.8721866607666 8.09252643585205 -85.6100006103516 -78.3300018310547 -42.7700004577637 4.28862613511063
"210" 1488117899332 100 2.21419715881348 2.21816539764404 0.5061354637146 1.42133677005768 8.98983478546143 6.66401052474976 -67.4100036621094 -52.9900016784668 -32.9000015258789 3.17475981721966
"211" 1488117899384 100 0.703201532363892 1.20025491714478 0.297710418701172 2.75653195381165 8.27198791503906 6.53001308441162 -77.9800033569336 -42.9099998474121 -51.1700019836426 1.42258066718635
"212" 1488117899432 100 -1.07221484184265 0.278728008270264 0.481278896331787 4.8000020980835 7.42014312744141 6.83390140533447 -48.3699989318848 -27.0200004577637 -51.1700019836426 1.20787555059133
"213" 1488117899483 100 -2.30112266540527 -0.515921115875244 0.574534893035889 6.60419034957886 6.49651384353638 7.07079124450684 0.21000000834465 -7.90999984741211 -25.8999996185303 2.42722690788554
"214" 1488117899531 100 -1.23024988174438 -1.38326597213745 -0.116564273834229 5.84087991714478 5.28335237503052 6.35055112838745 1.47000002861023 10.1499996185303 -14.8400001525879 1.85486569625403
"215" 1488117899584 100 -0.681747436523438 -0.411736488342285 -1.0044379234314 5.46281433105469 6.15194749832153 5.21156787872314 0.769999980926514 27.6499996185303 -21.1399993896484 1.28187442640295
"216" 1488117899636 100 0.662499189376831 -0.922809600830078 -0.384328365325928 3.95294308662415 5.41017198562622 5.73559522628784 -38.5 45.0800018310547 -19.1100006103516 1.19924602467685
"217" 1488117899676 100 -0.333331108093262 0.500277519226074 -0.317033290863037 5.03210639953613 6.95832824707031 5.72363185882568 44.310001373291 1.75 -28.0699996948242 0.6796302902175
"218" 1488117899723 100 1.23028516769409 0.046083927154541 -0.950416564941406 3.16091871261597 6.51565551757812 4.85264444351196 47.7400016784668 1.33000004291534 -20.5799999237061 1.55531892842114
"219" 1488117899785 100 0.377408266067505 0.724086284637451 -0.813932418823242 3.91944336891174 7.37467956542969 4.78564548492432 32.1300010681152 1.39999997615814 2.24000000953674 1.15291974105208
"220" 1488117899838 100 2.29275488853455 0.577354907989502 0.127956867218018 1.43090796470642 7.37228679656982 5.75952386856079 -70.2099990844727 12.3199996948242 -12.3900003433228 2.36779150867361
"221" 1488117899876 100 0.609078884124756 -1.5691442489624 -0.435541152954102 2.96231436729431 4.8335018157959 5.08714056015015 102.970001220703 -48.7200012207031 -6.09000015258789 1.73864512107993
"222" 1488117899899 100 -1.16474175453186 0.444545745849609 -0.375232219696045 5.02732038497925 6.95832824707031 5.0536413192749 90.4400024414062 32.1300010681152 0.699999988079071 1.30193836013882
"223" 1488117899963 100 0.842724084854126 -0.398581027984619 0.607172966003418 2.80917358398438 6.01555633544922 6.18783950805664 -105.699996948242 -2.66000008583069 70.0699996948242 1.11252403556413
"224" 1488117900014 100 0.0635309219360352 -0.255694389343262 -0.32973575592041 3.57248401641846 6.09451913833618 5.16849708557129 -41.9300003051758 41.2299995422363 28 0.422068083981803
"225" 1488117900076 100 0.0048823356628418 2.09446907043457 0.195633411407471 3.62991189956665 8.96829986572266 5.74277448654175 10.5 27.0200004577637 21.2800006866455 2.10359144224051
"226" 1488117900128 100 0.597325801849365 0.352822303771973 1.14426422119141 2.8881368637085 7.31485891342163 6.97747135162354 64.1900024414062 44.310001373291 13.1599998474121 1.33814136005608
"227" 1488117900192 100 0.340034008026123 0.881420612335205 0.567016124725342 3.06042003631592 8.06381225585938 6.5419774055481 37.0999984741211 24.0100002288818 17.7100009918213 1.10183152440027
"228" 1488117900240 100 1.26169848442078 1.86709117889404 0.244958400726318 1.82333087921143 9.51625537872314 6.28115940093994 79.0999984741211 1.19000005722046 14.0699996948242 2.26669741120866
"229" 1488117900275 100 -0.263622760772705 -0.181303024291992 -1.49623775482178 3.41455793380737 7.42253541946411 4.16590404510498 194.880004882812 32.7599983215332 24.5 1.5300637782684
"230" 1488117900330 100 -0.337239027023315 4.62911796569824 0.912522315979004 3.57248401641846 13.3902359008789 6.80279493331909 222.529998779297 1.82000005245209 -40.3199996948242 4.73023892407747
"231" 1488117900392 100 -0.620100498199463 0.223173141479492 8.31813621520996 4.01037073135376 9.04008388519287 16.2879428863525 52.5699996948242 -37.939998626709 -44.7299995422363 8.3442028363249
"232" 1488117900442 100 -0.568822145462036 -1.24949884414673 -5.60631370544434 4.1012978553772 7.25503778457642 0.961914658546448 77.9100036621094 83.7200012207031 -19.6000003814697 5.77196321527997
"233" 1488117900478 100 1.80376660823822 2.82317543029785 0.894014358520508 1.27776730060577 12.0335054397583 7.68574619293213 -178.570007324219 -12.3900003433228 -15.75 3.4674421639695
"234" 1488117900699 100 0.688795566558838 1.54643535614014 -3.92877888679504 2.22053956985474 11.1433744430542 1.88075852394104 36.75 -112.349998474121 7.49000024795532 4.27799078827408
"235" 1488117900732 100 -0.344836235046387 0.391046524047852 -1.62501645088196 3.34038043022156 10.0857467651367 3.7782666683197 -108.360000610352 27.0900001525879 -81.4800033569336 1.70660712485559
"236" 1488117900765 100 2.65868878364563 -0.282496452331543 -2.41219687461853 -0.327816724777222 9.34157943725586 2.38803696632385 -37.0299987792969 32.8300018310547 -14 3.60098931625496
"237" 1488117900798 100 0.945853590965271 0.928299903869629 -0.727603197097778 1.14855492115021 10.7844514846802 3.89072966575623 135.169998168945 42.4200019836426 0.349999994039536 1.51188165525387
"238" 1488117900829 100 2.40294480323792 0.0860500335693359 -2.05988955497742 -0.909272611141205 9.96371364593506 2.04347062110901 24.4300003051758 32.8300018310547 31.5 3.16617960867517
"239" 1488117900888 100 -1.55967962741852 1.76487255096436 -0.878380060195923 3.44327163696289 12.0837545394897 3.00538516044617 159.25 -0.420000016689301 52.8499984741211 2.5137476387819
"240" 1488117900930 100 -0.797893285751343 -1.34846305847168 -1.4282078742981 2.88095855712891 8.63330364227295 2.09850549697876 321.929992675781 -3.28999996185303 -70.0699996948242 2.120085858572
"241" 1488117900973 100 0.36475670337677 -0.799288749694824 -4.64948749542236 1.62711942195892 8.98265552520752 -2.28514575958252 353.010009765625 -17.9200000762939 -106.470001220703 4.73176964022298
"242" 1488117901022 100 1.38293242454529 -3.57590293884277 -4.13689804077148 0.263210475444794 5.31206607818604 -2.80678081512451 170.169998168945 17.9899997711182 -51.5200004577637 5.64034656015231
"243" 1488117901076 100 2.34104251861572 -3.39097166061401 -6.21536207199097 -1.28016018867493 4.649254322052 -6.43908548355103 97.8600006103516 -69.5100021362305 65.5199966430664 7.45720420553158
"244" 1488117901079 100 0.333770394325256 -0.107471942901611 -4.35972690582275 0.643669307231903 7.90588617324829 -5.67338228225708 -69.5100021362305 -63.4900016784668 39.9000015258789 4.37380516118333
"245" 1488117901137 100 -0.215376734733582 -4.29351711273193 -3.26381349563599 1.24666059017181 2.64646196365356 -5.39342212677002 -74.620002746582 -75.0400009155273 60.9000015258789 5.39751376741941
"246" 1488117901146 100 0.281377851963043 3.44120121002197 -1.68837857246399 0.67956155538559 11.2414808273315 -4.24008178710938 -131.740005493164 -19.7399997711182 31.5 3.84339192216817
"247" 1488117901196 100 0.931463479995728 -0.0705699920654297 -1.32007455825806 -0.203389927744865 7.71206712722778 -4.20179653167725 -102.76000213623 -27.1599998474121 42.8400001525879 1.61715836506697
"248" 1488117901238 100 -0.0339322686195374 0.755188941955566 -0.160187005996704 0.770488917827606 8.72662353515625 -3.08195567131042 -68.6699981689453 -32.060001373291 45.3600006103516 0.772736445235906
"249" 1488117901289 100 -0.352569699287415 -0.509946346282959 0.524612426757812 1.17726874351501 7.3340015411377 -2.26600313186646 -157.43000793457 4.55000019073486 83.4400024414062 0.812138453252694
"250" 1488117901337 100 -2.37433958053589 0.560657978057861 3.25853490829468 3.79262375831604 8.54477024078369 1.2825528383255 51.2400016784668 -131.460006713867 239.399993896484 4.07061120234226
"251" 1488117901391 100 -2.28232359886169 19.6466217041016 0.709798097610474 4.27118873596191 32.5423889160156 -1.08873438835144 908.179992675781 -300.019989013672 305.200012207031 19.7914769214773
"252" 1488117901435 100 -4.59770393371582 -5.03708934783936 -26.9496192932129 7.73599529266357 6.59940528869629 -35.4855575561523 -822.849975585938 556.5 495.950012207031 27.7991570125667
"253" 1488117901481 100 1.3735636472702 -2.21686935424805 1.8823070526123 1.42133677005768 8.86540794372559 -6.18305397033691 516.669982910156 20.2299995422363 21.8400001525879 3.21625040493124
"254" 1488117901541 100 2.50583076477051 -3.65903997421265 9.92475318908691 -0.337387979030609 6.50847768783569 4.34057998657227 117.319999694824 164.990005493164 -142.800003051758 10.8705329776809
"255" 1488117901582 100 -1.13663291931152 -4.64049339294434 1.86777591705322 3.58923387527466 4.36690139770508 -3.24945306777954 -78.8899993896484 184.940002441406 -350.980010986328 5.12978559001706
"256" 1488117901605 100 -5.00773286819458 -2.9696626663208 6.88094329833984 8.71226692199707 5.29531669616699 3.48394989967346 -111.650001525879 250.320007324219 -210.770004272461 9.01352680729934
"257" 1488117901661 100 -3.89515972137451 -0.497843265533447 3.36269974708557 8.57348346710205 7.64267492294312 0.806381285190582 -54.0400009155273 187.949996948242 -70.0699996948242 5.16990007264209
"258" 1488117901712 100 -3.94308757781982 -2.96720838546753 5.34714984893799 9.6071834564209 4.43150758743286 4.12761878967285 141.68000793457 127.400001525879 -97.8600006103516 7.27628179471792
"259" 1488117901769 100 -2.24902486801147 4.07345485687256 1.66092920303345 8.47537708282471 12.4905347824097 0.856630504131317 496.860015869141 106.819999694824 -42.3499984741211 4.94063084488226
"260" 1488117901816 100 -1.95810413360596 7.44524574279785 0.059590220451355 8.67398262023926 17.7236366271973 -0.729810893535614 -28.9799995422363 124.879997253418 -11.4800004959106 7.69866267367701
"261" 1488117901869 100 0.535372734069824 -5.7341775894165 1.46996593475342 6.0466628074646 3.11066937446594 1.04805624485016 -36.6100006103516 192.919998168945 114.449996948242 5.94375440615503
"262" 1488117901917 100 -2.46606016159058 2.52795505523682 1.37696993350983 9.66461086273193 12.0047912597656 1.2993026971817 -171.919998168945 58.939998626709 -21.2100009918213 3.79052182155328
"263" 1488117901975 100 -2.61220979690552 1.89985084533691 0.0142773389816284 10.463812828064 11.8516502380371 -0.0598205626010895 -461.860015869141 -42.2799987792969 64.6800003051758 3.23005837408319
"264" 1488117902023 100 -0.487534046173096 -2.06169605255127 0.798181891441345 8.46102046966553 7.37467956542969 0.923629462718964 -10.9899997711182 -79.4499969482422 276.850006103516 2.26392897218713
"265" 1488117902090 100 2.53687334060669 -1.33350515365601 1.67990183830261 4.80239486694336 7.76949453353882 2.22532486915588 71.9599990844727 -93.5900039672852 360.709991455078 3.32205245705732
"266" 1488117902132 100 1.43607807159424 -6.70046520233154 0.991698086261749 5.54417037963867 0.727418124675751 1.7850456237793 303.450012207031 -46.6199989318848 310.730010986328 6.92401756566698
"267" 1488117902193 100 3.25263237953186 -6.49935579299927 4.17010974884033 2.91445803642273 -0.696311354637146 6.00598478317261 731.429992675781 -17.2199993133545 249.830001831055 8.3792039262537
"268" 1488117902199 100 -1.59203433990479 6.23055076599121 -2.18654680252075 8.15713310241699 13.591233253479 -0.897308468818665 1291.5 80.5699996948242 51.2400016784668 6.79229880869823
"269" 1488117902245 100 1.63413143157959 2.11688137054443 -1.15964591503143 4.5224347114563 10.0067844390869 -0.160319104790688 320.040008544922 357.209991455078 59.9200019836426 2.91485006833688
"270" 1488117902299 100 4.3662896156311 -1.50139188766479 7.87021398544312 0.698704242706299 6.0131630897522 10.8370943069458 387.380004882812 182.910003662109 122.150001525879 9.12463318630278
"271" 1488117902511 100 -1.51658153533936 6.51334667205811 4.8815336227417 6.96072101593018 15.6562385559082 9.06879711151123 734.02001953125 -389.690002441406 8.39999961853027 8.27967843178105
"272" 1488117902552 100 0.0807733535766602 8.24286079406738 -13.3479814529419 5.34317302703857 19.4464683532715 -12.4977130889893 1001.77001953125 114.099998474121 -121.449996948242 15.6882085425042
"273" 1488117902586 100 -1.1528491973877 4.12681102752686 -4.67718601226807 6.86500787734985 16.3621215820312 -4.99621391296387 773.289978027344 27.7199993133545 -55.2299995422363 6.34316163456291
"274" 1488117902620 100 4.95066404342651 -2.65189456939697 7.44517517089844 -0.47617170214653 8.92044258117676 8.98744106292725 -347.130004882812 -97.7900009155273 117.040000915527 9.3258915178891
"275" 1488117902665 100 -3.48784685134888 -2.01431655883789 -7.26946878433228 8.83430099487305 9.05444145202637 -7.54456996917725 -848.119995117188 -165.339996337891 195.720001220703 8.31069932460886
"276" 1488117902709 100 1.02101039886475 -4.26078653335571 -2.2990825176239 4.07019138336182 5.74277448654175 -3.14895439147949 -834.190002441406 -243.740005493164 206.990005493164 4.94798388641871
"277" 1488117902746 100 -3.35244607925415 -2.616126537323 -0.681140184402466 9.28175926208496 6.73340272903442 -1.70129704475403 -676.200012207031 33.25 -16.7299995422363 4.30661871128615
"278" 1488117902815 100 -1.96028089523315 -2.49489498138428 2.00296545028687 8.37966442108154 6.2309103012085 1.48355007171631 -513.940002441406 -241.570007324219 13.3699998855591 3.75220904953274
"279" 1488117902850 100 -1.25237226486206 0.691701889038086 1.80911231040955 7.98484897613525 9.59043312072754 1.74197494983673 -389.480010986328 -320.600006103516 85.8899993896484 2.30646377486618
"280" 1488117902881 100 2.31933999061584 5.69123077392578 -1.51406741142273 3.83330178260803 16.0127696990967 -1.95972168445587 -1146.10998535156 -372.959991455078 151.690002441406 6.32944277488011
"281" 1488117902925 100 -20.1699829101562 -19.4441547393799 -36.0392646789551 31.365119934082 -13.9836549758911 -45.4947357177734 1312.64001464844 -1156.46997070312 -79.1699981689453 45.6479130160922
"282" 1488117902960 100 -7.13323020935059 -0.0862045288085938 -10.4717636108398 20.1116752624512 5.35274410247803 -22.5451755523682 353.850006103516 -366.100006103516 -3.92000007629395 12.670763101001
"283" 1488117902998 100 5.84979295730591 -0.735125541687012 6.24369287490845 5.66620397567749 4.52004194259644 -4.26879549026489 242.759994506836 -188.580001831055 10.4300003051758 8.58744361970249
"284" 1488117903032 100 2.65454864501953 -2.78566861152649 -1.61689281463623 8.19781112670898 1.7730815410614 -12.5336046218872 226.240005493164 -95.4800033569336 -2.02999997138977 4.17383762214598
"285" 1488117903080 100 4.94142723083496 -3.16652154922485 1.88415431976318 4.67557525634766 0.600598454475403 -8.56151866912842 169.68000793457 -186.970001220703 18.5499992370605 6.16397593279086
"286" 1488117903100 100 4.68630266189575 -1.16835117340088 -1.0424690246582 3.75912427902222 2.30668115615845 -11.7487592697144 31.2199993133545 -115.080001831055 -29.9600009918213 4.94097346386825
"287" 1488117903136 100 5.13496494293213 -3.68164157867432 1.04008293151855 2.02672076225281 -1.12701952457428 -9.4061861038208 115.779998779297 -209.440002441406 -150.850006103516 6.40344611778702
"288" 1488117903190 100 5.94948816299438 -1.18802440166473 1.67625427246094 -0.275174587965012 1.06959164142609 -8.35095119476318 92.2600021362305 -140.630004882812 -91.9100036621094 6.29425450442741
"289" 1488117903236 100 6.02108669281006 -3.22455811500549 2.91069602966309 -1.85204470157623 -1.7730815410614 -6.38883590698242 21.8400001525879 -100.660003662109 -155.399993896484 7.42451421821513
"290" 1488117903289 100 3.36777591705322 -1.46171975135803 1.84807825088501 -0.0406779870390892 -0.375673145055771 -6.98943471908569 32.4799995422363 -46.6199989318848 -184.449996948242 4.110222923442
"291" 1488117903335 100 2.61573624610901 -4.86963653564453 -2.85350322723389 0.057427741587162 -5.00099897384644 -12.4043922424316 22.75 94.2200012207031 -260.260009765625 6.22076496633065
"292" 1488117903391 100 -2.47291684150696 -5.70468282699585 3.82176637649536 5.76430988311768 -7.26221609115601 -4.77368116378784 98.5599975585938 250.18000793457 -190.470001220703 7.29826158055058
"293" 1488117903443 100 -2.85123491287231 -8.39034843444824 -1.25732517242432 6.8554368019104 -12.0454692840576 -10.167103767395 165.479995727539 -192.919998168945 -48.5099983215332 8.95032703140181
"294" 1488117903498 100 0.2802894115448 -1.53038167953491 1.15150928497314 3.65384030342102 -5.5680980682373 -7.47039222717285 17.0100002288818 -7.98000001907349 18.1299991607666 1.93561459817278
"295" 1488117903547 100 -0.0169646739959717 0.136731863021851 -4.68565464019775 3.95533561706543 -3.86680150032043 -14.4789695739746 49.0699996948242 57.0499992370605 -31.0100002288818 4.68767989625315
"296" 1488117903598 100 -0.314110279083252 -1.01045513153076 1.88896656036377 4.33100891113281 -5.26660251617432 -7.43210697174072 -114.520004272461 -72.3099975585938 -63.4200019836426 2.16515115094423
"297" 1488117903648 100 -0.0426340103149414 -1.0246753692627 1.67579936981201 4.07019138336182 -5.53699159622192 -7.2263240814209 34.5800018310547 25.4099998474121 -46.2700004577637 1.96470883315353
"298" 1488117903695 100 -0.00539302825927734 1.10217475891113 0.674477577209473 4.03429889678955 -3.13459777832031 -8.05902671813965 -159.389999389648 -28.2800006866455 -10.1499996185303 1.29218353421369
"299" 1488117903736 100 0.359394550323486 3.59232950210571 -1.14879322052002 3.57966279983521 0.253639191389084 -10.1694955825806 -404.529998779297 104.370002746582 -36.4000015258789 3.78863056499496
"300" 1488117903790 100 0.268373489379883 3.81950712203979 0.116579055786133 3.60359048843384 1.43569362163544 -8.87497901916504 -279.720001220703 -130.199996948242 -48.0900001525879 3.83069832554883
"301" 1488117903836 100 1.4321665763855 8.00013446807861 1.70889711380005 2.08175563812256 7.61635494232178 -6.8554368019104 40.1100006103516 123.690002441406 33.3199996948242 8.3050335312634
"302" 1488117903895 100 -3.75668144226074 -2.23702549934387 -3.18881702423096 8.20977401733398 -3.18006134033203 -12.5503549575806 316.470001220703 -79.9400024414062 134.68000793457 5.41160720649292
"303" 1488117903943 100 2.05212450027466 -0.166329503059387 -0.498969078063965 1.88793706893921 -1.15094769001007 -9.98524951934814 86.0999984741211 -36.189998626709 -29.75 2.11845476918425
"304" 1488117903998 100 2.29446172714233 0.611582815647125 2.94886255264282 1.07198452949524 -0.220139682292938 -5.80020189285278 81.129997253418 116.970001220703 55.5800018310547 3.78607692897212
"305" 1488117904036 100 -5.28355598449707 -4.62371683120728 0.0275230407714844 9.97089099884033 -6.61136865615845 -8.71466064453125 -49.560001373291 -79.9400024414062 -99.4000015258789 7.02107389893295
"306" 1488117904102 100 -0.377272605895996 1.25512623786926 2.12004613876343 5.15892601013184 -0.418743968009949 -6.09212636947632 116.199996948242 166.949996948242 -38.0099983215332 2.49244300288555
"307" 1488117904157 100 -0.502814769744873 1.71429085731506 0.627881050109863 5.41017198562622 0.468993246555328 -7.427321434021 22.8899993896484 29.2600002288818 -76.2300033569336 1.89363419097635
"308" 1488117904214 100 -0.572620868682861 1.30443370342255 1.44794797897339 5.62313318252563 0.385244458913803 -6.24526739120483 -172.550003051758 -53.5499992370605 -28.1399993896484 2.03125461124126
"309" 1488117904270 100 -0.0369596481323242 1.39002764225006 0.662566184997559 5.09671211242676 0.818345308303833 -6.86500787734985 -223.509994506836 -178.149993896484 6.51000022888184 1.54030412948598
"310" 1488117904319 100 2.55468082427979 2.35246133804321 -0.490246772766113 1.86640167236328 2.36889433860779 -8.14038276672363 -174.580001831055 -208.669998168945 47.7400016784668 3.50725111150292
"311" 1488117904353 100 2.92238926887512 1.86856937408447 -2.29879856109619 0.768096029758453 2.35214471817017 -10.5236339569092 -68.5999984741211 -204.050003051758 -36.1199989318848 4.16129611648833
"312" 1488117904393 100 1.03047323226929 -0.873081803321838 -0.223404884338379 2.40239381790161 -0.607776939868927 -8.50409126281738 136.149993896484 51.5200004577637 34.439998626709 1.36896189138393
"313" 1488117904437 100 2.85923480987549 3.4420747756958 -0.923371315002441 -0.141176536679268 4.56789827346802 -9.43490028381348 -37.7299995422363 -19.8799991607666 32.8300018310547 4.56899518984802
"314" 1488117904495 100 1.38385796546936 -0.745603919029236 0.494085311889648 0.988235771656036 0.193818628787994 -7.89392185211182 92.0500030517578 50.189998626709 32.2700004577637 1.64775858914158
"315" 1488117904537 100 -0.747829675674438 -1.14013242721558 -2.64265918731689 3.30688095092773 -0.48574298620224 -11.691330909729 91.9800033569336 9.23999977111816 -1.6800000667572 2.97368437392374
"316" 1488117904595 100 0.510091781616211 -1.45575523376465 -2.67117691040039 1.92143654823303 -1.16530466079712 -12.3876428604126 38.5699996948242 -20.6499996185303 3.00999999046326 3.08457501334653
"317" 1488117904637 100 -1.06781959533691 -3.09034776687622 -0.197797775268555 3.76630282402039 -3.57248401641846 -9.96371364593506 56.7000007629395 27.9300003051758 40.6700019836426 3.27560864089768
"318" 1488117904695 100 0.73075008392334 3.14224100112915 -2.37877750396729 1.7850456237793 3.44566488265991 -12.7393884658813 28.0699996948242 -5.59999990463257 37.5900001525879 4.00827351957322
"319" 1488117904737 100 1.771439909935 1.66577625274658 1.35504627227783 0.301495641469955 2.38564419746399 -8.66680335998535 107.870002746582 38.9200019836426 81.6900024414062 2.78369543570036
"320" 1488117904791 100 -0.491363286972046 -2.10347247123718 2.76666975021362 2.68713974952698 -1.90947258472443 -6.56351232528687 72.9400024414062 31.7100009918213 103.669998168945 3.5100563847015
"321" 1488117904837 100 -0.829541683197021 0.181709498167038 -1.17107200622559 3.2327036857605 0.421136766672134 -10.7940216064453 -69.5800018310547 -5.88000011444092 -6.15999984741211 1.44657090723223
"322" 1488117904895 100 -0.447321891784668 1.08718252182007 1.03099918365479 2.96231436729431 1.59840548038483 -8.33420085906982 -8.26000022888184 35.2099990844727 48.5099983215332 1.56365662065483
"323" 1488117904937 100 0.792611598968506 -1.47522020339966 2.66822957992554 1.5242280960083 -1.33280229568481 -6.02991342544556 17.9200000762939 15.4700002670288 69.3000030517578 3.15023124334192
"324" 1488117904995 100 -0.428323745727539 -0.23261833190918 0.800346374511719 2.85224437713623 -0.148355007171631 -7.69771003723145 -28.4899997711182 -1.04999995231628 80.7099990844727 0.937084221768957
"325" 1488117905037 100 2.52489948272705 0.0895584896206856 -0.450850486755371 -0.732203781604767 0.196211442351341 -9.06161975860596 -5.59999990463257 -29.0499992370605 87.5 2.56639908867386
"326" 1488117905096 100 0.463627696037292 -2.04552268981934 -0.858386993408203 1.21316111087799 -2.45025038719177 -9.68375301361084 20.9300003051758 0.140000000596046 115.360000610352 2.26626166749362
"327" 1488117905137 100 0.740354001522064 -2.26238083839417 -1.02936172485352 0.751346290111542 -3.2327036857605 -10.1120681762695 -78.4700012207031 -49.7000007629395 79.6600036621094 2.59346807693795
"328" 1488117905195 100 0.395114600658417 0.0239548683166504 -0.101814270019531 0.997807085514069 -0.94037926197052 -9.20997428894043 -73.2900009155273 -69.9300003051758 125.230003356934 0.408724270075975
"329" 1488117905237 100 0.187836408615112 2.24736022949219 -4.61250019073486 1.15812611579895 1.84486627578735 -14.8737850189209 -52.7099990844727 -74.4100036621094 147.350006103516 5.13430311990184
"330" 1488117905293 100 0.822173714637756 2.91390061378479 -1.24932098388672 0.318245381116867 3.23988175392151 -11.8229360580444 -24.7800006866455 3.00999999046326 43.6800003051758 3.27529988319181
"331" 1488117905336 100 -2.271075963974 -1.65436482429504 2.71420335769653 3.9792640209198 -1.74197494983673 -7.18086099624634 42.1399993896484 68.0400009155273 7.76999998092651 3.90661091906224
"332" 1488117905389 100 -1.09135687351227 -0.82769900560379 -0.345887184143066 3.07238411903381 -1.12223386764526 -10.3274230957031 -55.6500015258789 -14.9099998474121 85.6800003051758 1.41272198729771
"333" 1488117905437 100 0.0974433422088623 2.44085359573364 0.69190502166748 1.85922312736511 2.75653195381165 -9.11665439605713 -36.0499992370605 -5.74000024795532 103.879997253418 2.53889622469201
"334" 1488117905495 100 0.303837060928345 0.126480400562286 2.30315637588501 1.5768700838089 0.473778873682022 -6.92961454391479 13.5100002288818 15.960000038147 71.2600021362305 2.32655185695478
"335" 1488117905537 100 -0.0689544677734375 -0.344837814569473 1.02322244644165 1.96690022945404 -0.0837487876415253 -7.95374250411987 -12.25 14.9800004959106 80.9899978637695 1.0819667332617
"336" 1488117905592 100 1.44752907752991 0.329035341739655 -0.626687049865723 0.0885344371199608 0.672383189201355 -9.7603235244751 -60.2000007629395 -17.4300003051758 95.9700012207031 1.61131664947574
"337" 1488117905638 100 1.07379579544067 0.923647344112396 -1.65947532653809 0.193818628787994 1.49790704250336 -11.2079801559448 -41.0900001525879 -26.6000003814697 16.8700008392334 2.18174704903677
"338" 1488117905696 100 0.367072343826294 -1.21171116828918 0.230625152587891 0.808773994445801 -0.94037926197052 -9.26022338867188 4.05999994277954 -6.30000019073486 -21.9099998474121 1.28692424872836
"339" 1488117905738 100 -0.651985645294189 -0.276407539844513 1.10334300994873 1.99082839488983 -0.0741775035858154 -8.11166954040527 17.0100002288818 2.94000005722046 -20.8600006103516 1.31105003998905
"340" 1488117905796 100 -0.892954707145691 1.63379013538361 -1.89299869537354 2.45503616333008 2.24446773529053 -11.5812606811523 -24.2900009155273 -15.1900005340576 -15.4700002670288 2.65519912175647
"341" 1488117905838 100 0.104938745498657 3.00880742073059 -2.16716194152832 1.43090796470642 4.3716869354248 -12.3972148895264 -20.1599998474121 -19.4600009918213 -1.88999998569489 3.70951817843761
"342" 1488117905896 100 -0.0423901081085205 2.55252981185913 0.783520698547363 1.58883428573608 4.55354166030884 -9.25065231323242 -8.68000030517578 19.5300006866455 -15.539999961853 2.67041383436111
"343" 1488117905938 100 -0.412935018539429 0.221564292907715 0.0123395919799805 2.06261301040649 2.27796721458435 -10.0187482833862 -22.2600002288818 15.0500001907349 45.8499984741211 0.468783885130543
"344" 1488117905995 100 -0.718942403793335 0.516075134277344 0.367837905883789 2.54835605621338 2.70149683952332 -9.57129096984863 16.5200004577637 7.07000017166138 96.0400009155273 0.958392638325487
"345" 1488117906038 100 0.810768842697144 0.661713838577271 2.18364381790161 0.81595253944397 3.01256394386292 -7.2095742225647 -92.9599990844727 4.69000005722046 101.430000305176 2.42146890211563
"346" 1488117906097 100 -0.834935188293457 0.766738891601562 -0.934961318969727 2.67039036750793 3.3092737197876 -10.5619192123413 -11.5500001907349 -6.8600001335144 98 1.46940735145658
"347" 1488117906138 100 0.13412618637085 -0.261424779891968 2.4966983795166 1.66779744625092 2.21575379371643 -6.50608539581299 71.1900024414062 -6.8600001335144 80.5699996948242 2.5139283099748
"348" 1488117906192 100 -0.501433134078979 0.702047109603882 -2.83805656433105 2.42871499061584 3.3547375202179 -12.5503549575806 -10.8500003814697 -3.5699999332428 54.6700019836426 2.96628899374252
"349" 1488117906238 100 0.577039480209351 -0.372520446777344 1.60209846496582 1.20598256587982 2.18703985214233 -7.70967483520508 -4.76000022888184 -24.3600006103516 47.1100006103516 1.74311948426759
"350" 1488117906290 100 -0.252386808395386 -0.462642550468445 -0.391382217407227 2.09850549697876 1.9812570810318 -9.80100154876709 -4.34000015258789 -23.8700008392334 88.7600021362305 0.656442892153273
"351" 1488117906338 100 0.19817054271698 0.13716459274292 -1.70094299316406 1.59840548038483 2.6153552532196 -11.5357980728149 -81.4100036621094 2.73000001907349 79.0299987792969 1.71793269818611
"352" 1488117906389 100 0.240849494934082 -0.133379220962524 -0.596965789794922 1.4955141544342 2.31146669387817 -10.5810623168945 9.80000019073486 -25.2700004577637 82.3199996948242 0.657393831717371
"353" 1488117906438 100 -0.257171034812927 -0.263672590255737 1.06149101257324 2.05782747268677 2.11525511741638 -8.6572322845459 41.2299995422363 -13.3699998855591 80.5 1.12357614151097
"354" 1488117906492 100 -1.02121067047119 -0.60527515411377 0.904706001281738 3.07716989517212 1.62233376502991 -8.58784103393555 62.6500015258789 -59.9200019836426 106.330001831055 1.49255559173749
"355" 1488117906539 100 0.404328107833862 -0.934070825576782 -1.27663516998291 1.55054903030396 1.06002044677734 -11.0883407592773 -42.8400001525879 -70 90.0900039672852 1.63271763731991
"356" 1488117906593 100 1.26527750492096 0.382155656814575 0.462242126464844 0.373280316591263 2.4717857837677 -9.23390293121338 -95.9000015258789 -32.4099998474121 99.2600021362305 1.40022780074284
"357" 1488117906639 100 0.0723212957382202 -0.561434388160706 0.226224899291992 1.5481561422348 1.38783717155457 -9.41336345672607 -16.5200004577637 23.1700000762939 4.40999984741211 0.609603680341837
"358" 1488117906696 100 1.00732898712158 0.647722005844116 -0.0429897308349609 0.361316204071045 2.75892424583435 -9.69332504272461 79.9400024414062 -29.1900005340576 28.0699996948242 1.19837540116083
"359" 1488117906739 100 0.861376643180847 -1.60856294631958 0.19149112701416 0.291924357414246 0.100498549640179 -9.41097164154053 50.8199996948242 -27.2999992370605 -56.2799987792969 1.83469706638861
"360" 1488117906792 100 -0.620251297950745 0.644636034965515 0.359933853149414 1.9286150932312 2.51485657691956 -9.15254592895508 46.9700012207031 23.2399997711182 -31.1499996185303 0.964271574209583
"361" 1488117906839 100 -0.285632610321045 -0.636674642562866 -0.550498008728027 1.66540455818176 1.0743772983551 -10.2006025314331 -4.55000019073486 26.3199996948242 13.1599998474121 0.88881305468298
"362" 1488117906893 100 -0.284019708633423 -0.427026510238647 -0.484427452087402 1.73479652404785 1.17726874351501 -10.2556390762329 7.90999984741211 47.0400009155273 30.9400005340576 0.705470617159003
"363" 1488117906939 100 -0.845520973205566 -1.34086394309998 -0.201858520507812 2.50767803192139 -0.071784682571888 -10.0235347747803 -15.75 21.2800006866455 39.6199989318848 1.59798895250803
"364" 1488117906997 100 0.738219916820526 -0.324216306209564 -0.0906581878662109 0.739382207393646 0.863808929920197 -9.93499946594238 -30.3800010681152 32.6199989318848 14.6300001144409 0.811359208877217
"365" 1488117907039 100 -0.330182194709778 0.0162801742553711 1.88767433166504 1.89032995700836 1.20837545394897 -7.48474884033203 -57.4000015258789 68.7399978637695 21.1399993896484 1.91640280426746
"366" 1488117907097 100 -1.08919107913971 1.60377252101898 -1.67518711090088 2.9216365814209 3.19681096076965 -11.4664068222046 21.8400001525879 62.1599998474121 -42.9099998474121 2.56216224361018
"367" 1488117907139 100 -1.41117358207703 0.0885210037231445 1.9523754119873 3.59641242027283 1.7036896944046 -7.35075092315674 -13.1599998474121 76.0199966430664 -41.7200012207031 2.41060502699734
"368" 1488117907193 100 -2.71777296066284 0.717836022377014 0.348260879516602 5.58245515823364 2.51246380805969 -8.86780071258545 47.1100006103516 -6.15999984741211 23.4500007629395 2.83246607410112
"369" 1488117907246 100 -0.390129566192627 -0.849939167499542 0.500662803649902 3.35234427452087 0.732203781604767 -8.59023284912109 -0.490000009536743 25.0599994659424 18.6200008392334 1.06078315872097
"370" 1488117907290 100 -1.86456727981567 -0.335384964942932 0.0674495697021484 5.29292392730713 1.16291177272797 -9.00658416748047 -60.2000007629395 0.140000000596046 -12.6700000762939 1.89569081342976
"371" 1488117907343 100 -0.364155530929565 1.00850200653076 0.593780517578125 3.88355112075806 2.75892424583435 -8.33180809020996 -115.849998474121 7.28000020980835 -4.55000019073486 1.22566751239417
"372" 1488117907390 100 -0.647376537322998 1.20305323600769 0.0845155715942383 4.32861614227295 3.25423884391785 -8.81994438171387 -39.1300010681152 15.539999961853 -6.72000026702881 1.36878645214905
"373" 1488117907439 100 -1.61859941482544 1.220867395401 -0.135297775268555 5.70448875427246 3.57726979255676 -9.07358264923096 -68.8099975585938 26.8099994659424 1.25999999046326 2.03191701376289
"374" 1488117907496 100 0.2326979637146 0.714440584182739 0.199956893920898 3.79501676559448 3.24945306777954 -8.68833827972412 19.3899993896484 -3.15000009536743 5.94999980926514 0.77753228233353
"375" 1488117907539 100 -0.336433887481689 0.399269342422485 0.617472648620605 4.4482569694519 3.03409910202026 -8.11645412445068 -25.4099998474121 -7.1399998664856 -37.5200004577637 0.808626143677702
"376" 1488117907597 100 -0.257661819458008 1.55411171913147 -0.384666442871094 4.43390035629272 4.57746934890747 -9.21475982666016 28.6300010681152 -1.82000005245209 -11.5500001907349 1.62161065642135
"377" 1488117907639 100 0.639972686767578 0.000936031341552734 1.21410179138184 3.37627267837524 3.02452778816223 -7.31246566772461 45.9200019836426 -2.94000005722046 5.74000024795532 1.37244638357925
"378" 1488117907697 100 -0.906487464904785 -0.364874362945557 0.173035621643066 5.14935445785522 2.56749868392944 -8.31027317047119 -3.22000002861023 33.1800003051758 24.8500003814697 0.9923679514786
"379" 1488117907750 100 -0.97021484375 -0.0985596179962158 0.0216579437255859 5.45563554763794 2.80917358398438 -8.45623588562012 6.78999996185303 15.6099996566772 -9.65999984741211 0.975448567510772
"380" 1488117907798 100 -1.36193513870239 -0.819665312767029 0.838544368743896 6.18783950805664 1.88315141201019 -7.4297137260437 -73.9899978637695 8.47000026702881 19.8099994659424 1.79718535642206
"381" 1488117907855 100 -0.120933532714844 0.948415994644165 0.952230930328369 4.9770712852478 3.88833665847778 -7.07796907424927 -80.1500015258789 8.26000022888184 43.6100006103516 1.34939303499974
"382" 1488117907897 100 -0.439398765563965 1.625892162323 0.428703784942627 5.40538597106934 4.97228574752808 -7.49432039260864 -97.6500015258789 7 4.61999988555908 1.73792506567649
"383" 1488117907940 100 -1.10573720932007 1.55148148536682 -0.631394386291504 6.34815835952759 5.28574562072754 -8.71226692199707 37.7999992370605 16.4500007629395 35.7000007629395 2.00708954622144
"384" 1488117907999 100 -0.224170207977295 1.16844320297241 1.63693904876709 5.52263402938843 5.19481801986694 -6.03469848632812 71.8199996948242 -26.9500007629395 -12.8100004196167 2.02363070991115
"385" 1488117908052 100 0.701221942901611 1.14532327651978 -0.273540496826172 4.42193651199341 5.45802879333496 -8.01356315612793 226.660003662109 -50.6100006103516 -27.0200004577637 1.37051159219782
"386" 1488117908103 100 -1.82801628112793 -6.65463256835938 -0.634226322174072 7.40817880630493 -4.00558519363403 -8.53280544281006 272.510009765625 -24.0100002288818 -29.6800003051758 6.93022518910291
"387" 1488117908159 100 1.14289236068726 -3.37307691574097 -0.174300193786621 4.15154695510864 -1.56729888916016 -8.11645412445068 197.960006713867 -11.9700002670288 -41.9300003051758 3.56570208867425
"388" 1488117908194 100 1.89058542251587 -1.58436322212219 0.342952728271484 2.93120765686035 -0.174676060676575 -7.51346302032471 -21.2100009918213 -46.060001373291 -60.7600021362305 2.49040892892548
"389" 1488117908240 100 0.547682285308838 2.876877784729 -2.40559864044189 4.13719034194946 5.00578451156616 -10.86341381073 -117.389999389648 -60.2000007629395 1.82000005245209 3.78989267563136
"390" 1488117908296 100 1.25553417205811 1.79230999946594 0.0491199493408203 3.11545515060425 4.36929416656494 -8.3964147567749 -206.43000793457 -34.2999992370605 69.5800018310547 2.18887047602513
"391" 1488117908339 100 1.33367991447449 4.06978130340576 0.261350631713867 2.70388960838318 7.6642107963562 -8.11884689331055 -101.98999786377 61.9500007629395 8.32999992370605 4.29070228803176
"392" 1488117908393 100 -3.39710664749146 -2.55586242675781 -0.0799732208251953 8.2839527130127 0.399601370096207 -8.48016357421875 19.9500007629395 31.9200000762939 89.5299987792969 4.25195978755587
"393" 1488117908451 100 0.752865076065063 0.371103763580322 -1.32356071472168 3.94576478004456 3.4193434715271 -10.0546407699585 30.3099994659424 21.9099998474121 51.2400016784668 1.56727049090337
"394" 1488117908498 100 -0.511806011199951 -1.70734524726868 0.248590469360352 5.33838748931885 0.914058208465576 -8.42034244537354 67.9000015258789 -21.5599994659424 24.5699996948242 1.79965841423536
"395" 1488117908547 100 -0.759753704071045 -1.47690320014954 0.258213996887207 5.77627372741699 0.775274515151978 -8.34616565704346 119.699996948242 25.2000007629395 23.0300006866455 1.68081623672848
"396" 1488117908602 100 -0.150295734405518 -1.01498198509216 1.95811700820923 5.20438957214355 0.98345011472702 -6.15673303604126 97.370002746582 7.55999994277954 41.7200012207031 2.21065588812017
"397" 1488117908658 100 -0.63900089263916 -4.47587585449219 1.23915576934814 5.85284471511841 -3.59641242027283 -6.56590509414673 148.75 -0.490000009536743 -3.22000002861023 4.68799464870947
"398" 1488117908706 100 0.181761264801025 -1.77746951580048 -0.693222522735596 4.98664236068726 -1.34237349033356 -8.67158889770508 165.970001220703 -3.5699999332428 19.9500007629395 1.91650528384608
"399" 1488117908744 100 0.0267248153686523 -4.60730123519897 0.0273561477661133 5.13499736785889 -5.32403039932251 -7.94417095184326 -16.6599998474121 -28.2800006866455 3.3600001335144 4.60745995603251
"400" 1488117908800 100 -0.0992188453674316 -1.76201152801514 -0.584935188293457 5.28574562072754 -2.91924357414246 -8.70269584655762 -165.199996948242 13.8599996566772 -14.4200000762939 1.8592143982441
"401" 1488117908845 100 -1.21070146560669 2.73284530639648 -0.303322792053223 6.69990348815918 2.25882458686829 -8.49691390991211 -71.2600021362305 2.87000012397766 6.78999996185303 3.00437118607113
"402" 1488117908893 100 -0.0267457962036133 1.09706330299377 1.57971620559692 5.52263402938843 0.897308468818665 -6.21894598007202 -197.190002441406 -4.26999998092651 7.28000020980835 1.92347771461375
"403" 1488117908945 100 0.637107372283936 2.8780505657196 0.993863105773926 4.69950389862061 3.39780831336975 -6.55633354187012 -6.51000022888184 58.310001373291 17.9899997711182 3.1107627257115
"404" 1488117908994 100 -1.28588819503784 0.929917275905609 0.724262714385986 6.94397163391113 1.68215429782867 -6.64486837387085 -6.78999996185303 35.6300010681152 35.2799987792969 1.74436552064501
"405" 1488117909047 100 -0.578859806060791 0.081600546836853 0.244414806365967 6.38165807723999 0.854237675666809 -7.06361246109009 -82.1800003051758 46.8300018310547 12.9499998092651 0.633621276384974
"406" 1488117909106 100 -1.78584003448486 -0.667880415916443 -1.03150701522827 8.0350980758667 -0.0622133873403072 -8.59741115570068 -77.9100036621094 71.120002746582 -6.8600001335144 2.1677858753112
"407" 1488117909163 100 -0.553856372833252 -1.78048634529114 0.853598594665527 6.94157838821411 -1.61994087696075 -6.49890613555908 -88.620002746582 63.2799987792969 -47.5299987792969 2.05073622592257
"408" 1488117909209 100 0.194363117218018 2.10550308227539 -0.383363246917725 6.14476823806763 2.79242420196533 -7.8317084312439 -132.789993286133 83.7900009155273 -60.3400001525879 2.14892708808214
"409" 1488117909263 100 0.553655624389648 1.31686472892761 0.924176692962646 5.64706182479858 2.3330020904541 -6.29312419891357 7.42000007629395 52.6399993896484 -51.0999984741211 1.70140231119135
"410" 1488117909316 100 0.0485877990722656 2.35518741607666 2.36837530136108 6.1399827003479 3.96012139320374 -4.25683164596558 -249.970001220703 21.2100009918213 -77.7699966430664 3.34042962912883
"411" 1488117909382 100 0.121183395385742 5.74138021469116 0.527920246124268 6.03709125518799 8.78165912628174 -5.96530675888062 -70.9100036621094 47.810001373291 -78.8199996948242 5.76687367394434
"412" 1488117909433 100 -0.450531482696533 4.92044258117676 2.95489954948425 6.72143888473511 9.19083213806152 -2.7996027469635 -166.039993286133 30.0300006866455 -47.3899993896484 5.75718378715674
"413" 1488117909496 100 0.608189582824707 5.37396144866943 2.27969264984131 5.51067066192627 10.9878416061401 -2.9048867225647 -19.9500007629395 -13.9300003051758 14.0699996948242 5.86910170283172
"414" 1488117909551 100 -0.116439342498779 2.26048421859741 1.22076272964478 6.26440954208374 8.43948554992676 -3.65862607955933 85.0500030517578 -13.9300003051758 22.0499992370605 2.57169373470078
"415" 1488117909594 100 0.414126396179199 2.14146757125854 -0.281057357788086 5.63031196594238 8.85583591461182 -5.23071050643921 307.440002441406 16.1700000762939 40.8800010681152 2.19917649794899
"416" 1488117909650 100 -0.886166572570801 -3.24283957481384 -0.236331462860107 7.15214681625366 2.66081881523132 -5.24506759643555 259.489990234375 -32.2000007629395 30.5200004577637 3.37003742748627
"417" 1488117909700 100 -0.169112205505371 -1.60651469230652 -1.42567539215088 6.47737073898315 3.89551520347595 -6.79083013534546 -52.4300003051758 -103.809997558594 65.379997253418 2.15453909651975
"418" 1488117909750 100 9.52788543701172 15.2310066223145 -18.4684047698975 -5.60159778594971 24.5407886505127 -28.4506607055664 198.589996337891 -36.6100006103516 47.8800010681152 25.7652117859446
"419" 1488117909799 100 -1.62164402008057 -17.0325164794922 3.53324031829834 5.95334243774414 -11.980863571167 -5.56570529937744 188.720001220703 -98.7699966430664 124.459999084473 17.4705504807057
"420" 1488117909851 100 -1.30880117416382 -6.54325771331787 4.44605445861816 5.96769952774048 -3.12741899490356 -3.5413773059845 63 24.8500003814697 0.490000009536743 8.01839025399643
"421" 1488117909903 100 0.604963779449463 -14.434531211853 1.96992349624634 3.90269374847412 -14.6273250579834 -5.52502727508545 2.24000000953674 53.8300018310547 -67.2699966430664 14.5808871836205
"422" 1488117909951 100 4.30291604995728 18.8814220428467 -2.1032657623291 -0.870987474918365 23.4089832305908 -10.1240329742432 -147.279998779297 5.03999996185303 -180.949996948242 19.4793971097686
"423" 1488117910002 100 -4.2070426940918 -0.0730142593383789 -2.04249286651611 8.6907320022583 4.43629312515259 -10.5738830566406 75.25 68.879997253418 -11.2700004577637 4.67721246275462
"424" 1488117910050 100 -1.52603197097778 -2.67903089523315 2.163893699646 6.39122915267944 1.1605190038681 -5.82652282714844 23.7999992370605 89.6699981689453 -19.5300006866455 3.76675139310092
"425" 1488117910098 100 -1.44479417800903 -1.3602933883667 2.18862199783325 6.67118978500366 2.13918328285217 -5.25463914871216 -152.460006713867 136.639999389648 -75.3899993896484 2.95430102877865
"426" 1488117910141 100 -3.31703186035156 4.19511795043945 3.15404939651489 9.37268543243408 8.74337387084961 -3.50069952011108 -173.039993286133 118.090003967285 -34.5099983215332 6.20884390014297
"427" 1488117910192 100 -2.70339727401733 2.869873046875 2.89651966094971 9.43490028381348 8.13559722900391 -3.03409910202026 -8.47000026702881 83.2300033569336 18.2700004577637 4.8922749588113
"428" 1488117910254 100 -2.72742366790771 -0.567831993103027 2.65603923797607 10.1407823562622 4.5559344291687 -2.6105694770813 17.3600006103516 58.5900001525879 38.6399993896484 3.849132041165
"429" 1488117910301 100 -2.04411220550537 -0.0656709671020508 2.57468199729919 9.96849918365479 5.04167795181274 -2.04825615882874 7.98000001907349 38.2200012207031 41.0200004577637 3.28811416648399
"430" 1488117910353 100 -0.450364112854004 -2.0491087436676 1.9716899394989 8.48734188079834 2.54596304893494 -2.15832591056824 11.9700002670288 10.5699996948242 35.4200019836426 2.87910327967633
"431" 1488117910389 100 -0.279892921447754 -2.52175951004028 2.37942600250244 8.38684368133545 1.44287216663361 -1.15573334693909 6.51000022888184 -7.63000011444092 16.1700000762939 3.47840181338211
"432" 1488117910443 100 -0.243057250976562 -0.924366474151611 2.22896456718445 8.4107723236084 2.80917358398438 -0.748953521251678 2.66000008583069 2.58999991416931 -6.78999996185303 2.42524498712017
"433" 1488117910501 100 0.132892608642578 -2.24027132987976 0.621217012405396 8.00159931182861 0.933200836181641 -2.20139670372009 67.9700012207031 -6.78999996185303 -1.04999995231628 2.32860186666054
"434" 1488117910539 100 -1.39829254150391 -0.953771948814392 -0.303186416625977 9.88235759735107 1.9812570810318 -3.20159673690796 33.8800010681152 37.0999984741211 -19.3899993896484 1.7195420800891
"435" 1488117910602 100 -0.102163314819336 -0.0681419372558594 1.47645473480225 8.61176872253418 2.84985160827637 -1.05284190177917 67.9700012207031 42.7700004577637 -7.69999980926514 1.48155298603453
"436" 1488117910653 100 -1.93090343475342 3.0312705039978 0.201063632965088 10.9232349395752 6.70708179473877 -2.27796721458435 28.0699996948242 42.7700004577637 26.3899993896484 3.5996410275541
"437" 1488117910689 100 -0.338740348815918 -1.20058846473694 2.51538848876953 9.41575717926025 2.17507576942444 0.665204703807831 93.379997253418 50.6100006103516 37.7999992370605 2.80772807355157
"438" 1488117910741 100 -0.657671928405762 -0.742245197296143 1.74240040779114 9.89910697937012 2.44785761833191 0.327816724777222 36.8899993896484 3.4300000667572 45.0099983215332 2.00484899166817
"439" 1488117910800 100 -1.49283885955811 -2.88324880599976 -0.836190223693848 11.1074838638306 -0.413958340883255 -2.45982146263123 81.6900024414062 16.5200004577637 39.689998626709 3.35274598323627
"440" 1488117910852 100 -0.849703788757324 -3.00530338287354 -0.852721214294434 10.6767749786377 -1.28733861446381 -2.68953275680542 -13.5100002288818 10.8500003814697 -22.1200008392334 3.23743392535623
"441" 1488117910888 100 -0.863531112670898 1.12373518943787 0.38980770111084 10.9064855575562 3.12263369560242 -1.34955191612244 2.17000007629395 16.8700008392334 -22.0499992370605 1.46983563787823
"442" 1488117910936 100 0.497929573059082 0.809017896652222 -0.539998769760132 9.42054271697998 3.01017093658447 -2.41435813903809 20.2999992370605 -7.63000011444092 13.789999961853 1.09272251197312
"443" 1488117910996 100 0.176289558410645 -0.068718433380127 -0.558339834213257 9.69811058044434 2.11525511741638 -2.57228422164917 38.9200019836426 0.420000016689301 35.560001373291 0.589528287667459
"444" 1488117911043 100 0.849307060241699 -2.90530490875244 0.468343377113342 8.81276607513428 -1.44765758514404 -1.42851507663727 58.5900001525879 2.30999994277954 33.1100006103516 3.06291766364742
"445" 1488117911087 100 0.748359680175781 -1.98924887180328 0.380417346954346 8.72662353515625 -1.02891373634338 -1.42133677005768 41.9300003051758 -4.96999979019165 16.4500007629395 2.15913655027819
"446" 1488117911134 100 0.418746948242188 -0.39881631731987 -0.752336382865906 8.9515495300293 0.461814731359482 -2.74217462539673 26.7399997711182 -8.75 12.8800001144409 0.948901203817596
"447" 1488117911189 100 0.290969848632812 -0.893330454826355 -0.617182970046997 9.00658416748047 -0.256032019853592 -2.76131701469421 56.3499984741211 1.33000004291534 21.7000007629395 1.12410745609559
"448" 1488117911239 100 0.0183782577514648 -1.34445536136627 -0.0304961204528809 9.27458095550537 -1.04327070713043 -2.18225407600403 31.5 -11.1999998092651 6.01999998092651 1.34492676099004
"449" 1488117911290 100 -0.0408105850219727 -0.556800305843353 -0.252193689346313 9.34397220611572 -0.394815742969513 -2.46700000762939 30.9400005340576 -4.82999992370605 -0.21000000834465 0.612612227582173
"450" 1488117911337 100 -0.292987823486328 -1.10394501686096 0.757288217544556 9.66939640045166 -1.21794664859772 -1.26819610595703 32.060001373291 -9.59000015258789 3.71000003814697 1.37040939481427
"451" 1488117911391 100 0.0604057312011719 -1.09181022644043 -0.335984230041504 9.30090141296387 -1.47876441478729 -2.44546461105347 44.0999984741211 -4.13000011444092 1.61000001430511 1.14393348834556
"452" 1488117911440 100 -0.164158821105957 -0.486768007278442 -0.351100444793701 9.56650543212891 -0.995414197444916 -2.54835605621338 22.8899993896484 -0.349999994039536 -2.02999997138977 0.622224022190608
"453" 1488117911498 100 -0.380179405212402 0.0891501009464264 0.458023309707642 9.87757110595703 -0.397208571434021 -1.62472653388977 5.59999990463257 6.65000009536743 3.5 0.601888256142248
"454" 1488117911545 100 -1.26127338409424 -0.636955320835114 0.102250933647156 11.0739831924438 -1.2825528383255 -1.95493614673615 24.5699996948242 -1.6800000667572 -8.47000026702881 1.41667846867114
"455" 1488117911591 100 -1.20044422149658 0.757674515247345 0.793904781341553 11.3132648468018 0.301495641469955 -1.06480610370636 17.7800006866455 -4.61999988555908 -18.6900005340576 1.62647526935297
"456" 1488117911645 100 -0.409049034118652 1.00430524349213 0.168044805526733 10.6241321563721 0.799202740192413 -1.64865481853485 9.9399995803833 -23.4500007629395 6.44000005722046 1.09735554451768
"457" 1488117911697 100 0.534176826477051 0.263623416423798 0.461774110794067 9.54736232757568 0.124426774680614 -1.23948204517365 38.9200019836426 -49.9799995422363 17.7100009918213 0.75370917271299
"458" 1488117911747 100 0.222516059875488 0.260669440031052 -0.472854375839233 9.80339431762695 0.186640158295631 -2.29232406616211 4.48000001907349 -29.5400009155273 17.7100009918213 0.58399761525106
"459" 1488117911796 100 0.639348983764648 0.334876626729965 -1.4655818939209 9.22672462463379 0.344566494226456 -3.651447057724 2.02999997138977 -1.39999997615814 -18.0599994659424 1.63365839940904
"460" 1488117911844 100 0.287511825561523 -0.386774986982346 1.51132416725159 9.50668430328369 -0.473778873682022 -0.296710014343262 64.9599990844727 -9.73000049591064 -4.82999992370605 1.58630346368897
"461" 1488117911890 100 0.721973419189453 -0.190736010670662 -1.70444130897522 8.8917293548584 -0.325423896312714 -3.93858599662781 -1.6800000667572 -25.2000007629395 -7.98000001907349 1.8608455119982
"462" 1488117911951 100 -0.10581111907959 -0.0185907185077667 1.2245237827301 9.74596691131592 -0.157926291227341 -0.70348984003067 37.310001373291 -4.13000011444092 -17.9899997711182 1.22922744120327
"463" 1488117911990 100 -0.341159820556641 -0.947116315364838 0.0933175086975098 10.0666055679321 -1.32323098182678 -1.81136679649353 38.1500015258789 -0.560000002384186 -35 1.01100321236978
"464" 1488117912034 100 -0.0432167053222656 1.34607660770416 -0.0306301116943359 9.77946662902832 1.30648112297058 -1.94297194480896 15.1900005340576 0.21000000834465 -36.6800003051758 1.34711845105383
"465" 1488117912084 100 0.108996391296387 -0.180806249380112 1.35567593574524 9.60000419616699 -0.265603303909302 -0.217746868729591 45.7799987792969 -14.0699996948242 -49.6300010681152 1.37201616458745
"466" 1488117912127 100 0.194395065307617 0.678485989570618 -0.393266558647156 9.4660062789917 0.763310432434082 -2.06500601768494 46.7599983215332 -9.80000019073486 -47.4599990844727 0.807954989841482
"467" 1488117912175 100 0.0215177536010742 1.69517207145691 -1.33491277694702 9.63350391387939 2.20378947257996 -3.34038043022156 39.5499992370605 4.40999984741211 -50.2599983215332 2.15779134478382
"468" 1488117912224 100 0.457493782043457 -0.431779265403748 -0.445796489715576 9.08315467834473 -0.0311066936701536 -2.56271314620972 28.9099998474121 38.1500015258789 -73.1500015258789 0.771017772093326
"469" 1488117912273 100 -0.602619171142578 2.1699116230011 -1.19125366210938 10.2939224243164 3.11306214332581 -3.60598373413086 -60.2000007629395 38.8499984741211 -80.3600006103516 2.54769535159776
"470" 1488117912322 100 -1.89673328399658 1.26693606376648 0.475033521652222 12.062219619751 2.52682065963745 -1.82093811035156 20.2999992370605 19.25 -38.4300003051758 2.32988862115464
"471" 1488117912375 100 -0.546857833862305 0.927407264709473 1.38501238822937 10.8490581512451 2.41914367675781 -0.564706146717072 -17.0799999237061 2.17000007629395 -29.8899993896484 1.75425113385778
"472" 1488117912423 100 1.56099891662598 2.55855679512024 -0.720106363296509 8.35095119476318 4.68993234634399 -2.84985160827637 87.9199981689453 -15.8199996948242 -12.5299997329712 3.08244767449888
"473" 1488117912476 100 1.82307624816895 2.02578830718994 -2.35825967788696 7.63310432434082 4.66361093521118 -5.07756996154785 68.8099975585938 -32.2000007629395 -10.0100002288818 3.60399971982973
"474" 1488117912525 100 0.792299270629883 -0.833447933197021 -0.115918636322021 8.46580600738525 1.59601259231567 -2.86420869827271 -33.6700019836426 12.25 -26.3899993896484 1.15577278123245
"475" 1488117912578 100 0.115076065063477 1.8447482585907 0.831851720809937 9.11426067352295 4.73539590835571 -1.70847535133362 44.939998626709 -2.17000007629395 4.13000011444092 2.02689810393576
"476" 1488117912627 100 -0.876554489135742 2.26830196380615 0.502769351005554 10.3250293731689 5.72602510452271 -1.91186535358429 160.300003051758 -38.0800018310547 -2.87000012397766 2.48320731952477
"477" 1488117912678 100 0.464539527893066 -1.27497148513794 -1.26510310173035 8.86780071258545 1.86400890350342 -3.99601364135742 115.290000915527 -53.6199989318848 3.15000009536743 1.85521834803823
"478" 1488117912728 100 0.494143486022949 -3.21945977210999 -1.3164496421814 8.71466064453125 -0.885344326496124 -4.37647247314453 77 -62.2999992370605 -14.2799997329712 3.51313800887653
"479" 1488117912780 100 0.78199577331543 1.38886070251465 -1.81120610237122 8.23130989074707 4.07019138336182 -5.32403039932251 80.2900009155273 -35.7000007629395 -31.5 2.41265807476721
"480" 1488117912824 100 0.970163345336914 0.234358310699463 -0.947429418563843 7.80060195922852 2.97427845001221 -4.69711112976074 83.370002746582 -47.9500007629395 -12.1099996566772 1.37614070413946
"481" 1488117912877 100 0.80293083190918 -0.704557657241821 -1.67487335205078 7.76710224151611 1.85922312736511 -5.8432731628418 120.75 -59.3600006103516 -0.420000016689301 1.98652967725586
"482" 1488117912930 100 0.596403121948242 -1.80791389942169 -3.81312036514282 7.82452964782715 0.303888469934464 -8.93480014801025 4.34000015258789 -10.6400003433228 -38.5 4.26194043490271
"483" 1488117912986 100 1.79987478256226 2.19841623306274 0.0888872146606445 6.17108917236328 4.85982275009155 -5.01057052612305 7.1399998664856 15.0500001907349 -32.8300018310547 2.84261923296586
"484" 1488117913036 100 -0.537528991699219 -1.41510701179504 -0.307913303375244 8.6428747177124 0.892522811889648 -5.48434925079346 101.220001220703 -19.6700000762939 -11.9700002670288 1.54475754542392
"485" 1488117913105 100 0.567305088043213 -2.04135823249817 0.458116054534912 7.39621448516846 -0.244067922234535 -4.60379076004028 162.75 -26.3199996948242 -14.9800004959106 2.1676828217547
"486" 1488117913156 100 0.639527320861816 -0.610872745513916 -1.61667823791504 7.16411066055298 1.0336993932724 -7.08275461196899 59.2900009155273 -37.2400016784668 -22.3299999237061 1.8427721590822
"487" 1488117913199 100 0.168968677520752 -0.0752184391021729 -1.03108978271484 7.59242677688599 1.55054903030396 -6.75493860244751 59.3600006103516 -20.5799999237061 -24.7100009918213 1.04754683312157
"488" 1488117913248 100 0.542912483215332 -0.345399141311646 -1.63460254669189 7.08275461196899 1.19401848316193 -7.76710224151611 96.6699981689453 -7.84000015258789 -15.75 1.75669576674548
"489" 1488117913305 100 0.0801920890808105 -2.58491468429565 0.252438068389893 7.52542686462402 -1.69172561168671 -5.81695222854614 90.7900009155273 -13.0200004577637 -7.07000017166138 2.59844947509296
"490" 1488117913356 100 0.343635559082031 0.164093196392059 -0.734121322631836 7.17607450485229 1.09830558300018 -6.98704195022583 54.25 -15.75 -6.36999988555908 0.827010333013137
"491" 1488117913412 100 0.441448211669922 -0.818197429180145 -0.351843357086182 6.96789979934692 -0.0885344371199608 -6.69272470474243 28.7700004577637 -17.2199993133545 -2.02999997138977 0.994040896859503
"492" 1488117913455 100 0.665183067321777 -0.0764519572257996 -1.63485479354858 6.57786893844604 0.634098052978516 -8.38444995880127 23.9400005340576 11.9700002670288 -7.28000020980835 1.76665322313239
"493" 1488117913505 100 -0.103387832641602 -2.53246903419495 -0.934603691101074 7.37228679656982 -2.45503616333008 -7.91785001754761 3.22000002861023 16.2399997711182 -14.0699996948242 2.70140195315587
"494" 1488117913542 100 -0.60338830947876 1.25889182090759 -0.148519992828369 8.02313423156738 1.65104758739471 -7.16889619827271 2.02999997138977 23.8700008392334 -12.1800003051758 1.40390322210379
"495" 1488117913594 100 0.25810718536377 -1.06028532981873 0.434404373168945 7.09711170196533 -0.933200836181641 -6.47737073898315 -14.8400001525879 15.6099996566772 15.3299999237061 1.17453457130623
"496" 1488117913653 100 -0.0251398086547852 -2.37197780609131 1.44822216033936 7.386643409729 -2.83788776397705 -5.10149765014648 -32.2000007629395 2.45000004768372 -26.7399997711182 2.77925496280333
"497" 1488117913686 100 0.569479942321777 0.881920576095581 -0.539369106292725 6.64965391159058 0.636490762233734 -7.22393131256104 -117.319999694824 -6.92999982833862 -38.5699996948242 1.18025859033967
"498" 1488117913735 100 -0.700628280639648 1.60332345962524 -0.276440620422363 8.09491920471191 1.75872457027435 -7.03011322021484 -51.7299995422363 14.6999998092651 -32.1300010681152 1.77142471486548
"499" 1488117913800 100 0.295170783996582 1.56022620201111 0.205727100372314 7.02532768249512 2.10568380355835 -6.49651384353638 -105.769996643066 34.7900009155273 -59.9900016784668 1.6011730802742
"500" 1488117913848 100 -0.112257957458496 1.37835049629211 1.58113288879395 7.4608211517334 2.26839566230774 -4.72582483291626 -44.939998626709 13.4400005340576 -42.7000007629395 2.10057924193956
"501" 1488117913888 100 0.187761306762695 1.21370756626129 0.822712898254395 7.11386156082153 2.40717959403992 -5.27856636047363 -92.8899993896484 -17.2900009155273 -56.0699996948242 1.4782411432751
"502" 1488117913940 100 0.929312229156494 2.41623067855835 -0.62821102142334 6.1399827003479 4.21376037597656 -6.88654327392578 -178.919998168945 -30.3099994659424 -52.5699996948242 2.66391460049006
"503" 1488117914006 100 0.167258262634277 5.11065340042114 1.00586652755737 6.86022233963013 8.18584632873535 -5.00099897384644 108.150001525879 -12.6000003814697 -4.90000009536743 5.21138378714483
"504" 1488117914055 100 0.216119289398193 -0.957461833953857 -1.2091064453125 6.75733137130737 1.87836575508118 -7.51824855804443 10.0799999237061 -21.5599994659424 2.87000012397766 1.55736286934821
"505" 1488117914092 100 1.26593732833862 -0.0385513305664062 -1.68704605102539 5.391028881073 2.78763842582703 -8.41794967651367 -90.4400024414062 -4.76000022888184 -19.6000003814697 2.10955158805134
"506" 1488117914142 100 -0.537799835205078 3.47225141525269 1.82037448883057 7.32921600341797 7.16650390625 -4.45543575286865 74.6900024414062 -4.19999980926514 -3.84999990463257 3.95721137078322
"507" 1488117914201 100 0.417776584625244 -0.558750629425049 -0.15742015838623 6.26919555664062 2.99581408500671 -6.47258520126343 86.0999984741211 -11.1300001144409 11.8999996185303 0.715206716139025
"508" 1488117914255 100 0.447162628173828 -2.56991291046143 -0.0704226493835449 6.12801885604858 0.342173635959625 -6.40319347381592 -47.25 2.30999994277954 -15.3999996185303 2.60947621812076
"509" 1488117914291 100 1.09280490875244 2.02909660339355 -0.138651847839355 5.20917510986328 5.44845724105835 -6.50608539581299 -130.410003662109 10.710000038147 -41.1599998474121 2.30882652648612
"510" 1488117914340 100 -0.588248729705811 4.53677797317505 1.25394535064697 7.03729104995728 9.09033298492432 -4.8000020980835 24.7100009918213 2.87000012397766 -17.4300003051758 4.74349764291034
"511" 1488117914399 100 0.0998492240905762 -0.335005760192871 -0.6871337890625 6.32423067092896 4.1347975730896 -6.91286468505859 20.8600006103516 -14.3500003814697 6.78999996185303 0.770942002348608
"512" 1488117914458 100 0.166021823883057 -0.407745599746704 -0.15919828414917 6.216552734375 3.96012139320374 -6.42472887039185 -81.2699966430664 7.90999984741211 -16.5200004577637 0.468149349881313
"513" 1488117914491 100 0.527153968811035 2.43033504486084 0.513917922973633 5.72363185882568 7.40578603744507 -5.62313318252563 -122.98999786377 14.4899997711182 -20.5799999237061 2.53939586686785
"514" 1488117914553 100 -0.359293937683105 1.19196510314941 2.05356788635254 6.69990348815918 6.465407371521 -3.57009124755859 4.82999992370605 6.44000005722046 2.17000007629395 2.4014608063927
"515" 1488117914609 100 0.817091941833496 -0.235182762145996 -0.336488246917725 5.31924438476562 4.97946357727051 -6.04426956176758 -21.4200000762939 -16.7299995422363 3.4300000667572 0.914425783392844
"516" 1488117914641 100 0.0162253379821777 0.173648357391357 0.197887897491455 6.11605501174927 5.43170690536499 -5.46042108535767 -11.4800004959106 8.32999992370605 -5.1100001335144 0.263773830375458
"517" 1488117914707 100 0.125921726226807 1.30087375640869 0.736416339874268 5.97487831115723 6.88415098190308 -4.73778867721558 -19.1100006103516 -8.89000034332275 -14.3500003814697 1.50014593852819
"518" 1488117914753 100 -1.00378942489624 0.872243881225586 0.403450012207031 7.35553693771362 6.67358207702637 -4.96989250183105 -37.0299987792969 12.3900003433228 -5.3899998664856 1.38966705013066
"519" 1488117914790 100 0.0315852165222168 1.10361814498901 -0.132833480834961 6.31226587295532 7.18086099624634 -5.53938436508179 1.39999997615814 -5.17999982833862 3.28999996185303 1.11203209013161
"520" 1488117914838 100 0.812028408050537 0.140162467956543 1.48831033706665 5.32881593704224 6.25244617462158 -3.5461630821228 -2.73000001907349 4.90000009536743 2.94000005722046 1.70120642848662
"521" 1488117914896 100 0.615165710449219 0.0470442771911621 0.210547924041748 5.37188720703125 6.17108917236328 -4.77128839492798 37.8699989318848 -10.289999961853 14.1400003433228 0.651899105419865
"522" 1488117914946 100 -0.633450984954834 -0.775923728942871 1.00879788398743 6.77886629104614 5.15413999557495 -3.72083926200867 -8.26000022888184 10.0100002288818 -16.4500007629395 1.42161561408644
"523" 1488117914978 100 -0.234936237335205 1.02360868453979 -0.552084922790527 6.43908548355103 7.2095742225647 -5.41974353790283 10.5699996948242 23.1700000762939 -8.68000030517578 1.18649379966822
"524" 1488117915029 100 -0.174549579620361 -0.180355548858643 1.12419557571411 6.42233610153198 5.96052122116089 -3.46241426467896 5.94999980926514 2.51999998092651 -10.3599996566772 1.15187298440624
"525" 1488117915088 100 0.781118869781494 3.14058303833008 0.177681446075439 5.27138805389404 10.0666055679321 -4.36450815200806 -4.48000001907349 -9.02999973297119 -15.75 3.24113856625334
"526" 1488117915143 100 -0.55237340927124 -0.778143882751465 0.176601886749268 6.74297380447388 5.95334243774414 -4.3214373588562 14.9800004959106 -11.7600002288818 5.80999994277954 0.970470252989168
"527" 1488117915199 100 0.431002616882324 -0.540201663970947 -0.524880409240723 5.65184688568115 6.05623435974121 -5.15413999557495 16.5900001525879 -4.13000011444092 1.75 0.867802130396728
"528" 1488117915243 100 0.649168968200684 0.101916313171387 -0.153822422027588 5.27138805389404 6.72383165359497 -4.82153749465942 -11.4800004959106 -6.23000001907349 -7.76999998092651 0.674884154269177
"529" 1488117915298 100 0.320252418518066 1.59188270568848 -0.76624870300293 5.52024173736572 8.61176872253418 -5.6255259513855 -8.60999965667725 1.6800000667572 -1.96000003814697 1.79549136313445
"530" 1488117915350 100 -0.262561798095703 -0.506753921508789 0.135476112365723 6.16869640350342 6.38644361495972 -4.68993234634399 36.9599990844727 1.04999995231628 11.1999998092651 0.586593566113297
"531" 1488117915379 100 -0.543130874633789 -1.1902494430542 -0.347212314605713 6.58504819869995 5.40538597106934 -5.25942373275757 -14.2799997329712 -5.80999994277954 6.65000009536743 1.35360307146709
"532" 1488117915429 100 -0.438333034515381 -1.01345586776733 1.01818251609802 6.58983373641968 5.32881593704224 -3.63948321342468 33.5999984741211 6.57999992370605 7.49000024795532 1.50197346219805
"533" 1488117915488 100 -0.090327262878418 -0.468111991882324 -0.1712965965271 6.26440954208374 5.75713157653809 -4.87178659439087 30.2399997711182 -20.6499996185303 -2.09999990463257 0.506586986947861
"534" 1488117915541 100 0.287618637084961 -0.686513900756836 -0.954425811767578 5.81455898284912 5.36710119247437 -5.89352226257324 43.189998626709 0.699999988079071 0.420000016689301 1.21035302556699
"535" 1488117915595 100 2.31280779838562 2.39300346374512 -0.426631450653076 3.21116805076599 9.0448694229126 -5.4723858833313 -62.9300003051758 -24.0100002288818 6.72000026702881 3.35522873802306
"536" 1488117915646 100 -0.619146347045898 -0.0687685012817383 -0.117336273193359 6.29790878295898 6.56590509414673 -5.19242477416992 -13.789999961853 12.1800003051758 -11.6199998855591 0.633907806258704
"537" 1488117915702 100 -0.386204719543457 -0.139242172241211 0.662262916564941 6.16151809692383 6.46062088012695 -4.24726009368896 30.5200004577637 -5.67000007629395 -4.13000011444092 0.779188448698512
"538" 1488117915755 100 -0.297478675842285 -0.852211475372314 -0.433061599731445 6.14716148376465 5.53459882736206 -5.45085000991821 6.57999992370605 -7.76999998092651 -2.02999997138977 1.00114949458065
"539" 1488117915795 100 -0.274353504180908 -0.796625137329102 -0.195222854614258 6.19262456893921 5.391028881073 -5.26181697845459 -9.9399995803833 -5.74000024795532 -9.02999973297119 0.86486612700735
"540" 1488117915846 100 -0.16396951675415 0.714166641235352 -0.722798824310303 6.1232328414917 7.08036231994629 -5.9700927734375 -33.7400016784668 -4.26999998092651 -5.53000020980835 1.0292512493567
"541" 1488117915903 100 -0.487227916717529 -0.027829647064209 -0.22218656539917 6.56829833984375 6.33140897750854 -5.52502727508545 -7.63000011444092 4.26999998092651 7.49000024795532 0.536220478841028
"542" 1488117915938 100 -0.221327304840088 -0.734368324279785 0.813836097717285 6.35772943496704 5.4412784576416 -4.28554534912109 -7.90999984741211 0.140000000596046 6.78999996185303 1.11830756302592
"543" 1488117915992 100 0.389558792114258 0.524689674377441 0.323730945587158 5.64945363998413 6.83150863647461 -4.69471788406372 -15.6099996566772 -19.0400009155273 1.33000004291534 0.729285288513748
"544" 1488117916032 100 0.311646938323975 0.936601161956787 0.268555641174316 5.64945363998413 7.47757053375244 -4.6827540397644 45.3600006103516 -4.90000009536743 13.0900001525879 1.02297003042712
"545" 1488117916078 100 -0.212018966674805 -1.81773900985718 0.0961604118347168 6.22612428665161 4.26879549026489 -4.83110904693604 23.5900001525879 -25.4799995422363 1.82000005245209 1.83258668962498
"546" 1488117916126 100 0.307034492492676 1.6277642250061 -0.709831714630127 5.63031196594238 8.12123966217041 -5.81455898284912 61.3899993896484 2.38000011444092 10.0100002288818 1.80215083022612
"547" 1488117916179 100 -0.0970239639282227 -2.04965448379517 -0.336239814758301 6.05862665176392 3.93140745162964 -5.52502727508545 83.5800018310547 -0.349999994039536 11.5500001907349 2.07931584073865
"548" 1488117916232 100 0.14060640335083 -1.86177754402161 -0.381933212280273 5.78584480285645 3.65384030342102 -5.66620397567749 72.5900039672852 -11.3400001525879 -9.02999973297119 1.90574362460671
"549" 1488117916285 100 0.267539501190186 0.108983039855957 -1.70486927032471 5.59202671051025 5.65184688568115 -7.41535758972168 18.3400001525879 -6.92999982833862 -15.1199998855591 1.72917145378092
"550" 1488117916328 100 -0.113306522369385 0.0240159034729004 -0.559906959533691 6.00119924545288 5.57288360595703 -6.41037225723267 21.7700004577637 16.1700000762939 -2.94000005722046 0.571761256964239
"551" 1488117916379 100 -0.471582412719727 -0.595263957977295 -0.0631594657897949 6.47737073898315 4.80478763580322 -5.92941474914551 12.3900003433228 -8.26000022888184 0.21000000834465 0.762048731888063
"552" 1488117916435 100 -0.113098621368408 -0.935633182525635 -0.885143756866455 6.14716148376465 4.23051023483276 -6.97268486022949 9.44999980926514 -6.57999992370605 -4.13000011444092 1.29293473180905
"553" 1488117916491 100 0.0607481002807617 0.241165161132812 -0.193180084228516 5.95812797546387 5.46759986877441 -6.32901620864868 27.0200004577637 -5.3899998664856 8.32999992370605 0.314911910817094
"554" 1488117916535 100 0.521420001983643 -1.49735760688782 -0.784335136413574 5.36710119247437 3.3547375202179 -7.11625480651855 -16.1000003814697 -3.3600001335144 6.44000005722046 1.76893759855636
"555" 1488117916582 100 0.212310314178467 0.838884353637695 -0.27524471282959 5.62313318252563 5.90070056915283 -6.67597532272339 -26.6700000762939 -4.40999984741211 4.26999998092651 0.908054117454096
"556" 1488117916629 100 -0.0828342437744141 -1.26229310035706 0.658449172973633 5.93898630142212 3.48394989967346 -5.57766914367676 3.28999996185303 -1.82000005245209 11.9700002670288 1.42611384417247
"557" 1488117916680 100 -0.206007957458496 -0.992606163024902 -0.677309036254883 6.11366176605225 3.50548505783081 -7.08275461196899 -31.8500003814697 -16.5200004577637 -11.8299999237061 1.21920211778185
"558" 1488117916732 100 0.54155445098877 0.0386171340942383 -0.300651073455811 5.23071050643921 4.54636287689209 -6.78125953674316 3.15000009536743 -9.52000045776367 -5.3899998664856 0.620615480310902
"559" 1488117916781 100 -0.125720024108887 2.11743497848511 0.257185935974121 5.92941474914551 7.15453958511353 -6.15912580490112 -15.8900003433228 -0.349999994039536 -9.65999984741211 2.1366986259735
"560" 1488117916831 100 -0.0718622207641602 0.107028007507324 -0.933234691619873 5.89352226257324 5.17088985443115 -7.58285522460938 17.0799999237061 6.78999996185303 14.4899997711182 0.942096684426277
"561" 1488117916881 100 -1.00121927261353 -0.100060939788818 0.767590045928955 7.0731840133667 4.93878555297852 -5.69013261795044 -18.6900005340576 14.5600004196167 2.30999994277954 1.26556181284574
"562" 1488117916931 100 0.29780912399292 -0.487785339355469 -0.0386900901794434 5.69970321655273 4.429114818573 -6.50608539581299 16.9400005340576 4.76000022888184 5.80999994277954 0.572819111676325
"563" 1488117916982 100 0.251646995544434 -1.14061760902405 1.19225931167603 5.68295383453369 3.49112820625305 -4.9770712852478 16.9400005340576 5.67000007629395 -4.69000005722046 1.66907669286359
"564" 1488117917038 100 0.790909290313721 1.08599138259888 0.224474906921387 4.94596433639526 5.98923492431641 -5.88873672485352 42.6300010681152 4.76000022888184 -3.77999997138977 1.3620953609865
"565" 1488117917090 100 -0.0985193252563477 0.23517370223999 -0.649293422698975 5.860023021698 5.19721078872681 -6.92482852935791 0.840000033378601 6.92999982833862 -3.15000009536743 0.697563385244939
"566" 1488117917140 100 -0.452095508575439 -1.33943891525269 -0.800830841064453 6.32662296295166 3.28773832321167 -7.2765736579895 -23.1700000762939 -0.769999980926514 -0.699999988079071 1.62475136330682
"567" 1488117917195 100 -2.10556507110596 -0.0857081413269043 1.26019382476807 8.50648403167725 4.52004194259644 -4.90050077438354 -59.0100021362305 21.8400001525879 -10.1499996185303 2.45536934698931
"568" 1488117917246 100 -0.700523853302002 3.23161458969116 1.37952136993408 7.2765736579895 8.64526844024658 -4.43629312515259 -10.1499996185303 21.6299991607666 -8.05000019073486 3.58289627751833
"569" 1488117917305 100 0.95950174331665 -2.18503975868225 0.368542194366455 5.37667274475098 2.68235421180725 -5.35513687133789 44.0999984741211 3.64000010490417 8.47000026702881 2.41471855326419
"570" 1488117917351 100 0.578090190887451 0.753903388977051 -0.710151672363281 5.61356163024902 5.80977344512939 -6.61136865615845 -62.0900001525879 17.0100002288818 -5.32000017166138 1.18611718918146
"571" 1488117917387 100 -0.571227550506592 1.33245515823364 0.480891227722168 6.90568590164185 6.72143888473511 -5.30010271072388 -5.74000024795532 3.3600001335144 12.039999961853 1.52741416651193
"572" 1488117917438 100 -0.847491264343262 0.193062782287598 0.811593055725098 7.39382219314575 5.63031196594238 -4.76650285720825 10.2200002670288 15.0500001907349 -6.09000015258789 1.18920055883941
"573" 1488117917497 100 0.275307655334473 0.665556907653809 0.398506641387939 6.20219612121582 6.26919555664062 -5.07996273040771 26.9500007629395 4.05999994277954 5.32000017166138 0.823145093918296
"574" 1488117917543 100 -0.308088779449463 -2.81176352500916 -0.420097827911377 6.86261510848999 2.08893418312073 -6.00359153747559 2.24000000953674 10.9200000762939 0.840000033378601 2.85961798176093
"575" 1488117917597 100 0.413948059082031 -1.6043062210083 0.381768226623535 6.03709125518799 2.89531517028809 -5.10628318786621 -71.1900024414062 -1.6800000667572 -4.96999979019165 1.70026422218519
"576" 1488117917649 100 0.467070579528809 1.62431335449219 0.772493362426758 5.86720085144043 6.53001308441162 -4.5224347114563 -20.6499996185303 -12.25 -3.3600001335144 1.85830427940002
"577" 1488117917690 100 -1.42383193969727 1.67273044586182 1.16164398193359 8.11406135559082 6.99661302566528 -3.84287309646606 -19.5300006866455 4.13000011444092 -9.65999984741211 2.48490266967897
"578" 1488117917735 100 -0.388676166534424 1.10464477539062 0.0525851249694824 7.17607450485229 6.70468854904175 -4.93878555297852 17.1499996185303 -8.68000030517578 3.71000003814697 1.17220921238393
"579" 1488117917799 100 -0.48130989074707 -1.62779068946838 0.0248398780822754 7.38903570175171 3.56530547142029 -4.96032094955444 -43.75 11.4099998474121 5.3899998664856 1.69763917226072
"580" 1488117917845 100 1.50432443618774 3.11204671859741 0.722404479980469 5.02732038497925 9.08315467834473 -4.08215522766113 -43.9599990844727 16.3099994659424 -22.6800003051758 3.53124553390731
"581" 1488117917892 100 0.879950523376465 0.184870719909668 1.12157249450684 5.43170690536499 6.20219612121582 -3.40259408950806 44.3800010681152 -4.48000001907349 2.87000012397766 1.43750303203323
"582" 1488117917937 100 -0.655162811279297 -1.04851484298706 -0.222582817077637 7.13061094284058 4.70668172836304 -4.80239486694336 29.8199996948242 -4.19999980926514 -8.05000019073486 1.25625029182317
"583" 1488117917991 100 -0.570073127746582 0.90890645980835 0.648892879486084 7.18803930282593 6.89132976531982 -3.76869583129883 18.1299991607666 -19.6000003814697 -6.57999992370605 1.25385656783695
"584" 1488117918040 100 0.671439647674561 1.08891916275024 -0.767267227172852 5.77866649627686 7.34357213973999 -5.37667274475098 49.2799987792969 -29.1200008392334 9.73000049591064 1.49173561376256
"585" 1488117918096 100 0.988915920257568 -0.378874778747559 0.0255489349365234 5.21396112442017 5.78105926513672 -4.57746934890747 43.8899993896484 -7.84000015258789 14.4200000762939 1.05931748941773
"586" 1488117918148 100 -0.80344295501709 -0.904176712036133 -1.05154514312744 7.20718097686768 5.02971315383911 -5.91744995117188 -78.120002746582 -8.32999992370605 7.55999994277954 1.60274866918989
"587" 1488117918182 100 0.00426435470581055 1.30577182769775 -0.249730110168457 6.39840745925903 7.56610488891602 -5.17806768417358 -21 -9.9399995803833 22.6800003051758 1.32944476329592
"588" 1488117918258 100 0.0933809280395508 -0.718413829803467 -0.0447297096252441 6.28594541549683 5.36231565475464 -4.98424959182739 32.2700004577637 -4.13000011444092 23.1000003814697 0.725836879400304
"589" 1488117918303 100 -0.47277307510376 -0.0215106010437012 0.812232494354248 6.97029256820679 6.05384111404419 -3.92422914505005 160.300003051758 -35.4200019836426 34.2299995422363 0.940052504589637
"590" 1488117918347 100 0.226687431335449 -1.1561918258667 -0.0795459747314453 6.21416044235229 4.63011169433594 -4.8358941078186 -90.1600036621094 -2.17000007629395 -22.2600002288818 1.18088707835356
"591" 1488117918388 100 0.627372264862061 4.22057199478149 -1.0303373336792 5.65663242340088 11.0620183944702 -6.04426956176758 180.110000610352 -70.0699996948242 55.9300003051758 4.38958072519747
"592" 1488117918438 100 -0.937624931335449 -6.055091381073 -0.755356788635254 7.45603561401367 -0.727418124675751 -5.95812797546387 -73.2900009155273 -20.8600006103516 20.2999992370605 6.17364041900269
"593" 1488117918498 100 -0.497417449951172 2.34205150604248 -2.34243154525757 7.14018249511719 8.2552375793457 -8.13081073760986 -8.05000019073486 -6.8600001335144 8.1899995803833 3.34956936346891
"594" 1488117918545 100 -0.530017852783203 -1.59690833091736 -0.422938346862793 7.30528736114502 3.91705060005188 -6.31705188751221 13.4400005340576 54.4599990844727 25.1299991607666 1.73490979214172
"595" 1488117918600 100 0.402945041656494 -3.11138606071472 0.670463562011719 6.27158784866333 1.62472653388977 -5.05603408813477 -18.4799995422363 18.4799995422363 36.2599983215332 3.20820967416266
"596" 1488117918646 100 -1.78332805633545 -0.429367065429688 1.54327082633972 8.90369319915771 4.19940376281738 -3.79740929603577 -87.2200012207031 3.4300000667572 -18.8999996185303 2.39714410847996
"597" 1488117918699 100 -1.34243488311768 0.877803325653076 0.88813591003418 8.79840850830078 5.72602510452271 -4.23051023483276 0.0700000002980232 -4.82999992370605 -5.17999982833862 1.83342725206947
"598" 1488117918746 100 0.899652004241943 0.376818180084229 -0.28107738494873 6.33140897750854 5.31924438476562 -5.46999263763428 -1.96000003814697 -23.7999992370605 1.96000003814697 1.01507150778068
"599" 1488117918802 100 0.384726524353027 0.684306621551514 0.154160976409912 6.75015306472778 5.79780960083008 -4.99621391296387 15.6800003051758 -4.90000009536743 -26.0400009155273 0.800034785173535
"600" 1488117918853 100 0.158469200134277 -0.558996200561523 0.00464534759521484 6.93679285049438 4.41475772857666 -5.14456844329834 15.0500001907349 0.840000033378601 -9.52000045776367 0.58104287181558
"601" 1488117918886 100 0.232059001922607 -0.596508979797363 -0.258537769317627 6.80518817901611 4.22811794281006 -5.4723858833313 46.3400001525879 -14.3500003814697 -6.78999996185303 0.690301471471662
"602" 1488117918933 100 0.292845726013184 -0.358523368835449 -0.61265230178833 6.67118978500366 4.37647247314453 -5.97966337203979 -30.7999992370605 -6.01999998092651 -11.4099998474121 0.767880503810226
"603" 1488117918986 100 -0.00500583648681641 1.19290256500244 0.202839374542236 6.97029256820679 6.22612428665161 -5.11346197128296 -42.1399993896484 0.140000000596046 -18.6200008392334 1.21003528868088
"604" 1488117919034 100 0.108936786651611 0.671011924743652 -0.733601570129395 6.82911586761475 5.87198638916016 -6.23330307006836 -4.90000009536743 -7.28000020980835 1.53999996185303 1.00014773425253
"605" 1488117919083 100 -0.150218486785889 0.175015449523926 0.370247840881348 7.12582588195801 5.41974353790283 -5.03689193725586 2.58999991416931 -6.23000001907349 -0.349999994039536 0.436210344927311
